timestamp_sec,timestamp_nanosec,orientation_x,orientation_y,orientation_z,orientation_w,angular_velocity_x,angular_velocity_y,angular_velocity_z,linear_acceleration_x,linear_acceleration_y,linear_acceleration_z
1701438660.0,872574508.0,-0.0012594712898135185,7.73947685956955e-05,-0.0001486707478761673,0.9999992251396179,-0.00027025802110726914,4.978665126878038e-05,4.0451416606984925e-08,-0.03806507587432861,0.021015703678131104,-0.0027217864990234375
1701438663.0,972662066.0,-0.0012348005548119545,0.0001435438171029091,-0.00014857668429613113,0.9999992251396179,2.945742921658339e-05,2.6483628159071878e-05,3.7879462557531776e-08,0.011563301086425781,-0.0411381721496582,0.004057884216308594
1701438664.0,34698611.0,-0.0012344876304268837,0.00014349352568387985,-0.00014857668429613113,0.9999992251396179,4.5024464650802895e-05,-2.3529956013358627e-05,-2.2220539119126356e-08,0.003988027572631836,-0.012214362621307373,0.00028896331787109375
1701438664.0,82910864.0,-0.0012348862364888191,0.00014229025691747665,-0.00014857761561870575,0.9999992251396179,-1.1319310891185166e-05,-6.633096288317976e-05,-8.565014724194648e-08,0.0036811232566833496,-0.006604552268981934,0.020025253295898438
1701438664.0,132663916.0,-0.0012358231469988823,0.00013993307948112488,-0.0001485813409090042,0.9999992251396179,-7.35199076726281e-05,-0.0001083593819556068,-3.3157040982842046e-07,-0.007505834102630615,0.020584285259246826,0.010943412780761719
1701438664.0,172702475.0,-0.0012369891628623009,0.0001373831182718277,-0.00014858413487672806,0.9999992251396179,-4.4382270922514006e-05,-0.00014217248912758024,-3.7218131733406863e-07,0.013762593269348145,-0.013327062129974365,0.0017786026000976562
1701438664.0,222729377.0,-0.0012396462261676788,0.00013347435742616653,-0.00014858972281217575,0.9999992251396179,-0.00012709157609676602,-0.0001648057933573096,-5.914023186952156e-07,-0.008131325244903564,-0.0021730661392211914,-0.010811805725097656
1701438664.0,275027081.0,-0.0012427447363734245,0.00012916326522827148,-0.00014859531074762344,0.9999992251396179,-0.00012178217785531795,-0.00014702783479409424,-4.998597090416883e-07,-0.00468212366104126,-0.0019704699516296387,0.01052093505859375
1701438664.0,332697750.0,-0.0012466926127672195,0.00012274179607629776,-0.00014860276132822037,0.9999992251396179,-0.00017143692246154591,-0.00028932765340560385,-6.041372449539078e-07,0.012596547603607178,0.01442044973373413,-0.022202491760253906
1701438664.0,372706077.0,-0.001249321736395359,0.0001177024096250534,-0.00014860928058624268,0.9999992251396179,-0.00010748950815718696,-0.0002551374343596109,-7.045218975921937e-07,0.005262613296508789,0.009125828742980957,-0.004433631896972656
1701438664.0,435867684.0,-0.0012529613450169563,0.00011049304157495499,-0.00014861859381198883,0.9999992251396179,-7.503334280055042e-05,-0.00017562472951513887,-5.139893187892295e-07,-0.0018545985221862793,-0.0034952163696289062,-0.001007080078125
1701438664.0,472666565.0,-0.0012555671855807304,0.00010615494102239609,-0.00014862418174743652,0.9999992251396179,-0.00015049053365831226,-0.00021255716461627907,-6.575537758327893e-07,-2.0205974578857422e-05,0.00732266902923584,-0.006291389465332031
1701438664.0,542741622.0,-0.0012609446421265602,9.939074516296387e-05,-0.00014863256365060806,0.9999992251396179,-0.00016389904764221869,-0.00018218453652207335,-4.3013341539164675e-07,0.0018605589866638184,0.002003610134124756,-0.00598907470703125
1701438664.0,622638300.0,-0.0012650927528738976,9.28705558180809e-05,-0.0001486409455537796,0.9999992251396179,-9.62725713342045e-05,-0.00015120035171306928,-3.863256323169434e-07,0.0001831650733947754,-0.0018884539604187012,-0.007961273193359375
1701438664.0,643760539.0,-0.0012658899649977684,9.13599506020546e-05,-0.00014864280819892883,0.9999992251396179,-5.8481833468358015e-05,-0.00013718601059901987,-3.4930888586286344e-07,0.00733792781829834,0.012392938137054443,-0.0045032501220703125
1701438664.0,675434248.0,-0.001266411505639553,8.899811655282974e-05,-0.00014864560216665268,0.9999992251396179,-2.7513647106632926e-05,-0.0001288858155237023,-3.1390775916548325e-07,0.007162809371948242,-0.007572948932647705,-0.022466659545898438
1701438664.0,723867760.0,-0.0012670895084738731,8.476711809635162e-05,-0.00014865119010210037,0.9999992251396179,-3.1401711800383122e-06,-0.0001514769882635371,-3.589224877207947e-07,-0.005552232265472412,-0.006050169467926025,-0.020544052124023438
1701438664.0,772693761.0,-0.0012667365372180939,8.034985512495041e-05,-0.00014865677803754807,0.9999992251396179,5.549723641308656e-05,-0.00018445677846211334,-4.1595837121332376e-07,0.0032367706298828125,-0.017153799533843994,-0.01671600341796875
1701438664.0,842747429.0,-0.001264302060008049,7.361359894275665e-05,-0.0001486651599407196,0.9999992251396179,0.00010862811380792164,-0.0002714538125121978,-5.868118544620834e-07,0.015588700771331787,-0.010417044162750244,-0.007542610168457031
1701438664.0,902652204.0,-0.0012611187994480133,6.733927875757217e-05,-0.00014867354184389114,0.9999992251396179,0.00013403742071625455,-0.00020602930611084312,-4.375728499308273e-07,-0.015084922313690186,0.01799488067626953,0.003265380859375
1701438664.0,932709905.0,-0.0012588603422045708,6.443914026021957e-05,-0.0001486772671341896,0.9999992251396179,0.00015854452822853393,-0.00018652046664518205,-4.0908549054983245e-07,-0.009699642658233643,-0.007336974143981934,-0.0254669189453125
1701438664.0,972643653.0,-0.0012563848868012428,6.097555160522461e-05,-0.00014868192374706268,0.9999992251396179,0.0001520707175743755,-0.0002030861061382268,-4.810797100677066e-07,-0.022028207778930664,-0.0019731521606445312,0.012451171875
1701438665.0,22665003.0,-0.0012523913756012917,5.755666643381119e-05,-0.00014868564903736115,0.9999992251396179,0.00017790944980998103,-0.00012103801106780943,-3.3270167624887093e-07,-0.003838181495666504,-0.021947085857391357,-0.0017490386962890625
1701438665.0,72754685.0,-0.001248648390173912,5.5130571126937866e-05,-0.000148688443005085,0.9999992251396179,0.0001355769457242287,-8.38110098374923e-05,-9.741040823123271e-08,0.005408167839050293,-0.0058400630950927734,0.010959625244140625
1701438665.0,124684353.0,-0.0012448113411664963,5.328841507434845e-05,-0.00014869123697280884,0.9999992251396179,0.00012960524479703519,-5.780324314164979e-05,-2.2046393421412986e-07,0.007216334342956543,-0.009641408920288086,-0.006764411926269531
1701438665.0,172792804.0,-0.0012399638071656227,5.162879824638367e-05,-0.00014869309961795807,0.9999992251396179,0.0002054556902139994,-6.17686756014062e-05,-2.500900616715158e-07,-0.00347745418548584,0.002758204936981201,0.011662483215332031
1701438665.0,232760839.0,-0.001234453171491623,4.9661844968795776e-05,-0.0001486949622631073,0.9999992251396179,0.000159331109822084,-6.943814085206152e-05,-7.758024239459125e-08,-0.0018003582954406738,-0.00461733341217041,0.008517265319824219
1701438665.0,284994193.0,-0.0012299474328756332,4.7419220209121704e-05,-0.00014869775623083115,0.9999992251396179,0.00014805618574124262,-8.414213523818627e-05,-9.705054666588927e-08,-0.007592320442199707,-0.01894134283065796,-0.025360107421875
1701438665.0,333381051.0,-0.0012257248163223267,4.430953413248062e-05,-0.0001487014815211296,0.9999992251396179,0.00012947764691698246,-0.0001308263991059223,-3.2818323901016976e-07,0.028054237365722656,0.004575490951538086,-0.0019168853759765625
1701438665.0,382659021.0,-0.001223134808242321,4.006829112768173e-05,-0.0001487070694565773,0.9999992251396179,0.0001015962864276865,-0.00018280909552479446,-4.0776691697891173e-07,0.009676814079284668,-0.009453177452087402,-0.001857757568359375
1701438665.0,432672089.0,-0.0012214472517371178,3.5140663385391235e-05,-0.0001487135887145996,0.9999992251396179,3.511849577494101e-05,-0.0002040247547145559,-6.208082914102837e-07,-0.015680789947509766,-0.02179938554763794,0.012663841247558594
1701438665.0,472766669.0,-0.001220756210386753,3.0924566090106964e-05,-0.0001487182453274727,0.9999992251396179,3.45959129823479e-05,-0.00021695627786120377,-4.4910626599098274e-07,0.0074506402015686035,-0.019684791564941406,-8.7738037109375e-05
1701438665.0,526241917.0,-0.0012208260595798492,2.5727786123752594e-05,-0.000148724764585495,0.9999992251396179,2.4057921420980343e-06,-0.00015043500632498492,-3.242169258244785e-07,0.005676329135894775,0.003925502300262451,0.00157928466796875
1701438665.0,573510311.0,-0.0012215003371238708,2.1080486476421356e-05,-0.0001487303525209427,0.9999992251396179,-5.34604378300057e-05,-0.0001690573137089899,-3.835576339646657e-07,0.003923535346984863,-0.01383984088897705,-0.009211540222167969
1701438665.0,633023807.0,-0.0012229830026626587,1.6104429960250854e-05,-0.000148736871778965,0.9999992251396179,-2.273610579124593e-05,-0.00015246834456990725,-3.729351698337373e-07,-0.0067629218101501465,-0.0010971426963806152,-0.00921630859375
1701438665.0,684279688.0,-0.0012242775410413742,1.264922320842743e-05,-0.00014874059706926346,0.9999992251396179,-4.5109351451466865e-05,-0.00010992815808022679,-2.995703976055816e-07,-0.028117060661315918,-0.008410274982452393,-0.001979827880859375
1701438665.0,733865446.0,-0.0012246370315551758,1.0336749255657196e-05,-0.0001487433910369873,0.9999992251396179,9.65512572476727e-06,-7.382003796312838e-05,-9.041763717794749e-08,0.009891211986541748,0.003995835781097412,-0.005705833435058594
1701438665.0,783206933.0,-0.0012245429679751396,8.761882781982422e-06,-0.00014874525368213654,0.9999992251396179,-2.0935908063304125e-05,-5.292327438492835e-05,-6.427505028558748e-08,0.0028761625289916992,0.012781023979187012,-0.007283210754394531
1701438665.0,832264609.0,-0.001223251223564148,7.71787017583847e-06,-0.00014874711632728577,0.9999992251396179,7.558530427209697e-05,-3.90037720913458e-05,-2.52157890444708e-07,0.0191495418548584,-0.016162097454071045,-0.007102012634277344
1701438665.0,873166886.0,-0.0012223673984408379,6.9160014390945435e-06,-0.00014874804764986038,0.9999992251396179,6.735809289181814e-05,-4.3702584033550575e-05,-2.4038848506419097e-07,0.0028913021087646484,0.0017081499099731445,-0.01221466064453125
1701438665.0,924327604.0,-0.0012212125584483147,5.777925252914429e-06,-0.000148748978972435,0.9999992251396179,5.838290404568657e-05,-4.271004559011962e-05,-5.319927817144866e-08,-0.0006601810455322266,0.01962745189666748,0.016740798950195312
1701438665.0,974897057.0,-0.0012199785560369492,4.521571099758148e-06,-0.00014875084161758423,0.9999992251396179,2.5854497020980003e-05,-4.498417865046516e-05,-2.1983566499014325e-07,0.013555526733398438,-1.710653305053711e-05,-0.013742446899414062
1701438666.0,32596437.0,-0.0012191301211714745,2.5723129510879517e-06,-0.00014875270426273346,0.9999992251396179,3.0164792564540264e-05,-8.060395849733658e-05,-9.737969342147724e-08,0.006180286407470703,0.0036774873733520508,-0.0031681060791015625
1701438666.0,82746445.0,-0.0012193433940410614,3.371387720108032e-07,-0.0001487554982304573,0.9999992251396179,-2.0197714643923426e-06,-9.522542783469707e-05,-1.1556362321835126e-07,0.0060239434242248535,-0.008764684200286865,0.012877464294433594
1701438666.0,134586279.0,-0.001219836063683033,-2.021901309490204e-06,-0.00014875829219818115,0.9999992251396179,-2.6178759473548503e-05,-8.185048525350864e-05,-9.74237067098853e-08,0.01664215326309204,0.009333789348602295,-0.019616127014160156
1701438666.0,182791823.0,-0.001219973899424076,-4.8568472266197205e-06,-0.00014876201748847961,0.9999992251396179,1.1186773026489374e-06,-0.00012233608141146374,-3.3243703343610287e-07,0.007461190223693848,0.011167347431182861,0.0038213729858398438
1701438666.0,232650281.0,-0.001220674254000187,-8.153729140758514e-06,-0.00014876574277877808,0.9999992251396179,-5.7247636561444977e-05,-0.00013159331592655835,-1.5923079468144764e-07,-0.0034981966018676758,-0.004938364028930664,-0.019399642944335938
1701438666.0,282606826.0,-0.0012217797338962555,-1.1174939572811127e-05,-0.00014876946806907654,0.9999992251396179,-5.6273988669441666e-05,-0.00010937749730051216,-1.3278539714517514e-07,-0.014123201370239258,0.002396881580352783,-0.010231971740722656
1701438666.0,322694020.0,-0.0012228786945343018,-1.2699514627456665e-05,-0.00014877133071422577,0.9999992251396179,-5.4208504516530956e-05,-5.7185661144948856e-05,-6.937477603485748e-08,-0.001111745834350586,0.020438671112060547,0.014851570129394531
1701438666.0,374965491.0,-0.0012242067605257034,-1.3241544365882874e-05,-0.00014877226203680038,0.9999992251396179,-4.272174420981808e-05,8.051235839118631e-06,9.499793751062595e-09,-0.03304368257522583,0.011406123638153076,-0.022945404052734375
1701438666.0,432623966.0,-0.0012255441397428513,-1.1296942830085754e-05,-0.00014876946806907654,0.9999992251396179,1.4821514564430434e-05,0.00011871534645428131,3.559651418827009e-07,-0.005150735378265381,0.0040514469146728516,0.0286865234375
1701438666.0,482707115.0,-0.001225183717906475,-7.776543498039246e-06,-0.00014876574277877808,0.9999992251396179,4.55840555501203e-05,0.0001587957461079451,3.8106971828732617e-07,0.009577035903930664,-0.019863367080688477,-0.009295463562011719
1701438666.0,535519556.0,-0.0012232949957251549,-3.4552067518234253e-06,-0.00014876015484333038,0.9999992251396179,8.194525820916262e-05,0.0001405253826383886,3.163016425383372e-07,-0.013501584529876709,0.0067130327224731445,-0.007559776306152344
1701438666.0,582299089.0,-0.001220707781612873,1.4211982488632202e-06,-0.00014875363558530807,0.9999992251396179,0.00017271300553042758,0.00020428240046713235,6.384732481062854e-07,-0.009681165218353271,0.009965717792510986,-0.00554656982421875
1701438666.0,622618657.0,-0.001217481680214405,5.323439836502075e-06,-0.000148748978972435,0.9999992251396179,0.00032640127029800065,0.00027942852585534963,6.166430597068649e-07,-0.0005934834480285645,0.0006669759750366211,0.010611534118652344
1701438666.0,682590274.0,-0.0012114979326725006,1.1159107089042664e-05,-0.00014874152839183807,0.9999992251396179,0.00021047836710865638,0.00019615596850712727,4.2631084753005835e-07,-0.004183769226074219,-0.005316793918609619,-0.0236358642578125
1701438666.0,744303592.0,-0.0012039877474308014,1.6955658793449402e-05,-0.00014873407781124115,0.9999992251396179,0.0002508253454803024,0.000161490417537837,3.5813890997707264e-07,0.006756842136383057,-0.007501006126403809,-0.0020647048950195312
1701438666.0,775095626.0,-0.001200009137392044,1.991353929042816e-05,-0.00014872942119836807,0.9999992251396179,0.00023116030549646347,0.00016035183229495294,4.983887293097478e-07,0.006871223449707031,-0.027280867099761963,-0.005595207214355469
1701438666.0,832608727.0,-0.0011934302747249603,2.601463347673416e-05,-0.00014872197061777115,0.9999992251396179,0.00023829707758937657,0.000234839716413494,5.066367852498319e-07,0.014152109622955322,-0.003845393657684326,-0.0019197463989257812
1701438666.0,882687113.0,-0.0011887066066265106,3.1171366572380066e-05,-0.00014871545135974884,0.9999992251396179,0.00019295036791563554,0.00021343252990443145,4.451877444168661e-07,0.016184449195861816,0.017758667469024658,0.005099296569824219
1701438666.0,935199304.0,-0.0011842306703329086,3.6463141441345215e-05,-0.00014870800077915192,0.9999992251396179,0.00011807884200121599,0.00016998626785638438,5.025688048423913e-07,0.019835352897644043,-0.007414102554321289,-0.004136085510253906
1701438666.0,984403165.0,-0.0011793598532676697,4.142243415117264e-05,-0.00014870241284370422,0.9999993443489075,0.0001718167712095082,0.0001662067485170454,3.6128392028503e-07,-0.012471914291381836,0.017652571201324463,-0.0025320053100585938
1701438667.0,2849515.0,-0.0011773491278290749,4.3437816202640533e-05,-0.00014869961887598038,0.9999993443489075,0.00022788279333012804,0.00019434855969917208,4.201839556120159e-07,-0.0015950798988342285,0.010376691818237305,0.004498481750488281
1701438667.0,82561740.0,-0.0011680638417601585,5.1662325859069824e-05,-0.000148688443005085,0.9999993443489075,0.0003225228490384799,0.0002662699785119602,8.088527042178783e-07,0.007507264614105225,0.006213009357452393,-0.013795852661132812
1701438667.0,152574430.0,-0.001158926635980606,5.858764052391052e-05,-0.00014867912977933884,0.9999993443489075,0.00027825234507678664,0.00024314283273884865,7.571154181197129e-07,0.003910720348358154,0.018477976322174072,-0.02987384796142578
1701438667.0,242564296.0,-0.001146663911640644,6.557628512382507e-05,-0.00014866981655359268,0.9999993443489075,0.0002588948807236648,0.00010673632026086835,3.2657445180298876e-07,0.0052065253257751465,-0.015954315662384033,-0.013379096984863281
1701438667.0,282549815.0,-0.0011417139321565628,6.695184856653214e-05,-0.00014866795390844345,0.9999993443489075,0.0002470600780230655,4.742526211619193e-05,6.872667050912115e-08,0.006649136543273926,-0.005087733268737793,0.013754844665527344
1701438667.0,332632030.0,-0.001136329025030136,6.724987179040909e-05,-0.00014866702258586884,0.9999993443489075,0.0001870508948942967,-4.796607181256425e-06,8.693887093348845e-09,0.0026816129684448242,0.00042003393173217773,0.022490501403808594
1701438667.0,422578576.0,-0.0011269552633166313,6.565824151039124e-05,-0.00014866795390844345,0.9999993443489075,0.0002020433625755243,-6.948491825016204e-05,-6.589657249040757e-08,0.023636937141418457,0.007762134075164795,-0.010510444641113281
1701438667.0,442693239.0,-0.0011252090334892273,6.485916674137115e-05,-0.00014866888523101807,0.9999993443489075,0.00017023625376908326,-8.956525343157038e-05,-8.915171828187517e-08,-0.021390557289123535,-0.010190129280090332,-0.006793022155761719
1701438667.0,482557775.0,-0.0011218488216400146,6.304401904344559e-05,-0.0001486707478761673,0.9999993443489075,0.00018208584602120526,-9.556530390759806e-05,-9.598160436412357e-08,0.005450129508972168,-0.008326947689056396,0.0038547515869140625
1701438667.0,552518658.0,-0.001117638312280178,5.952082574367523e-05,-0.00014867447316646576,0.9999993443489075,0.00014193275610002953,-0.00014215389197922063,-1.522840783354425e-07,0.012473881244659424,-0.015337884426116943,-0.010750770568847656
1701438667.0,593350419.0,-0.0011155195534229279,5.744677037000656e-05,-0.0001486772671341896,0.9999993443489075,8.801331364931178e-05,-9.523293026340881e-05,-2.723465075353944e-07,-0.0037072300910949707,-0.0205572247505188,0.0018491744995117188
1701438667.0,692518189.0,-0.001112879253923893,5.30928373336792e-05,-0.00014868192374706268,0.9999993443489075,3.78854971632074e-05,-8.356337465810342e-05,-1.8441574383357682e-07,0.01965165138244629,-0.019944727420806885,-0.010569572448730469
1701438667.0,753579075.0,-0.0011131362989544868,5.0479546189308167e-05,-0.00014868471771478653,0.9999993443489075,-4.291379487235135e-05,-7.811374827183233e-05,-8.677914652104939e-08,0.014250397682189941,-0.01804196834564209,0.0054931640625
1701438667.0,785436361.0,-0.0011135060340166092,4.918314516544342e-05,-0.00014868658035993576,0.9999993443489075,-1.0243923184425187e-05,-6.556689162351078e-05,-2.188792253306223e-07,-0.005545258522033691,-0.012516498565673828,-0.005438804626464844
1701438667.0,864918812.0,-0.0011146264150738716,4.606414586305618e-05,-0.00014869030565023422,0.9999993443489075,-8.26087652848949e-06,-5.939242296854574e-05,-2.1848655903483275e-07,0.00530773401260376,-0.02671569585800171,0.010331153869628906
1701438667.0,892568138.0,-0.0011152615770697594,4.5029446482658386e-05,-0.00014869123697280884,0.9999993443489075,-4.1809817649008435e-05,-6.810248460649933e-05,-2.6309512772303375e-07,0.01432126760482788,-0.01938176155090332,0.015531539916992188
1701438667.0,913906202.0,-0.0011160001158714294,4.434864968061447e-05,-0.00014869216829538345,0.9999993443489075,-6.437418841984936e-05,-5.867294667007542e-05,-2.323247963979721e-07,-0.018121302127838135,0.005885124206542969,-0.02038288116455078
1701438667.0,932719557.0,-0.0011167200282216072,4.367902874946594e-05,-0.00014869216829538345,0.9999993443489075,-6.370470092129367e-05,-6.040486297790589e-05,-6.997634930820395e-08,0.014323890209197998,0.0006828904151916504,0.022592544555664062
1701438668.0,42559719.0,-0.0011229515075683594,4.0971674025058746e-05,-0.00014869589358568192,0.9999993443489075,-0.00011918856899113098,-2.9908490871393313e-05,-3.746046520720541e-08,0.00014191865921020508,0.006384313106536865,0.0066738128662109375
1701438668.0,132446830.0,-0.0011289222165942192,4.077702760696411e-05,-0.00014869589358568192,0.9999993443489075,-0.00013888701097943004,-5.9009784618212e-07,-5.928862687779442e-09,0.007599472999572754,-0.020221710205078125,0.021195411682128906
1701438668.0,154694253.0,-0.0011301049962639809,4.072580486536026e-05,-0.00014869589358568192,0.9999993443489075,-8.321618492453568e-05,-5.194366090920516e-06,-9.523109835891261e-09,-0.00862884521484375,-0.003998816013336182,0.012238502502441406
1701438668.0,234510497.0,-0.0011367974802851677,4.0930695831775665e-05,-0.00014869682490825653,0.9999993443489075,-0.0001231864402941054,1.7712599296928048e-05,1.4568350090530584e-08,0.004219651222229004,0.016188204288482666,0.029974937438964844
1701438668.0,282632205.0,-0.0011418526992201805,4.1542574763298035e-05,-0.00014869589358568192,0.9999993443489075,-0.0002233804141545146,2.5375558508835775e-05,1.7108239862773635e-08,-0.020992398262023926,-0.017720937728881836,-0.000926971435546875
1701438668.0,322484479.0,-0.0011461172252893448,4.204642027616501e-05,-0.00014869589358568192,0.9999993443489075,-0.0003228185562675242,2.8636272818124183e-05,1.895544654374546e-08,0.029285907745361328,-0.013928890228271484,0.0022335052490234375
1701438668.0,394701046.0,-0.0011546667665243149,4.1962601244449615e-05,-0.00014869589358568192,0.9999993443489075,-0.0003589224690907991,-3.898626300283409e-05,-6.078233510047732e-08,0.0019384026527404785,-0.008153796195983887,-0.005261421203613281
1701438668.0,442867884.0,-0.0011611692607402802,4.0286220610141754e-05,-0.00014869775623083115,0.9999993443489075,-0.00023613760469996673,-9.475006814141497e-05,-1.1918833187460054e-07,0.01930457353591919,0.0011530518531799316,-0.014104843139648438
1701438668.0,482675697.0,-0.0011661434546113014,3.7690624594688416e-05,-0.0001487014815211296,0.9999993443489075,-0.00027522142641637267,-0.00017749760210188008,-4.4385757779065703e-07,-0.008043348789215088,0.002959311008453369,0.0007457733154296875
1701438668.0,582527611.0,-0.0011776052415370941,2.8561800718307495e-05,-0.00014871172606945038,0.9999993443489075,-0.0001969865433218908,-0.00018908112695999434,-5.987029821135962e-07,0.01298290491104126,0.013416945934295654,-0.005614280700683594
1701438668.0,612436632.0,-0.001180507242679596,2.5795772671699524e-05,-0.00014871452003717422,0.9999993443489075,-0.00020734395884882762,-0.00019547844523742843,-4.387882132901353e-07,-0.0013204216957092285,0.0025879740715026855,0.007321357727050781
1701438668.0,702385263.0,-0.0011861706152558327,1.920759677886963e-05,-0.00014872197061777115,0.9999993443489075,-0.0001152513562356623,-0.00013579499648988327,-3.18003470941423e-07,-0.0062950849533081055,-0.010679483413696289,-0.0010395050048828125
1701438668.0,732422665.0,-0.0011869920417666435,1.7945654690265656e-05,-0.00014872383326292038,0.9999993443489075,-5.412266938692551e-05,-7.627877917216558e-05,-2.790206391328766e-07,0.013714730739593506,0.00891202688217163,0.013502120971679688
1701438668.0,772562731.0,-0.0011874297633767128,1.6517937183380127e-05,-0.0001487256959080696,0.9999993443489075,1.070652225266691e-05,-7.486587883806014e-05,-2.8781358223776205e-07,-0.015040457248687744,-0.009383320808410645,0.0030755996704101562
1701438668.0,882373459.0,-0.0011863019317388535,1.3336539268493652e-05,-0.00014872942119836807,0.9999993443489075,9.559474689039508e-06,-5.27834634092348e-05,-3.141998786036586e-07,-0.0004550814628601074,-0.018612444400787354,0.013974189758300781
1701438668.0,912401056.0,-0.001186354085803032,1.2866221368312836e-05,-0.00014872942119836807,0.9999993443489075,7.230997065764987e-06,-2.985598635190059e-05,-3.5658405727349806e-08,0.006762862205505371,-0.005890488624572754,0.0031499862670898438
1701438669.0,3851948.0,-0.0011886116117238998,1.10650435090065e-05,-0.00014873221516609192,0.9999993443489075,-7.202309890344346e-05,-4.446290611880628e-05,-1.1439616309982329e-07,-0.01138758659362793,0.0055997371673583984,0.017665863037109375
1701438669.0,42532076.0,-0.0011904826387763023,1.0021030902862549e-05,-0.00014873314648866653,0.9999993443489075,-7.655052849802872e-05,-4.762646326903075e-05,-5.541605881217554e-08,0.010177433490753174,0.002299010753631592,0.010347366333007812
1701438669.0,72605510.0,-0.0011924970895051956,9.434297680854797e-06,-0.00014873407781124115,0.9999993443489075,-0.00012953470471017183,-3.4769292404252306e-05,-2.2455672114475424e-07,0.0029984116554260254,-0.008310556411743164,-0.014842987060546875
1701438669.0,142402645.0,-0.0011970605701208115,8.56444239616394e-06,-0.00014873500913381577,0.9999993443489075,-0.00033756033342357666,-4.6611080005729457e-05,-5.8425828838427994e-08,0.008550107479095459,0.0007153749465942383,0.006443977355957031
1701438669.0,192407349.0,-0.0011998247355222702,8.021481335163116e-06,-0.00014873500913381577,0.9999993443489075,-8.318614366711098e-05,-2.0623919048037477e-05,-2.6104077959174178e-08,-0.0022690892219543457,0.025782763957977295,-0.0048694610595703125
1701438669.0,212349664.0,-0.001200944185256958,7.844530045986176e-06,-0.00014873594045639038,0.9999993443489075,-0.0001122514650582546,-1.7879638827032285e-05,-2.349385172127095e-08,0.015667080879211426,0.0041051506996154785,-0.01945018768310547
1701438669.0,292493097.0,-0.0012029539793729782,7.390044629573822e-06,-0.00014873594045639038,0.9999993443489075,-4.122418655286195e-05,-9.037960802189073e-06,-1.129845854354004e-08,-0.012792587280273438,-0.0035805702209472656,0.023466110229492188
1701438669.0,342413330.0,-0.001202831044793129,7.841736078262329e-06,-0.00014873594045639038,0.9999993443489075,-1.370692002985802e-05,2.98101783220183e-05,3.471708071360064e-08,-0.003611326217651367,0.03561675548553467,0.015842437744140625
1701438669.0,432448549.0,-0.0011987071484327316,9.684823453426361e-06,-0.00014873314648866653,0.9999993443489075,0.00016879620720864643,4.2133017093426214e-05,5.2206800932887116e-08,-0.00883936882019043,0.01315164566040039,0.02029705047607422
1701438669.0,462369824.0,-0.0011967075988650322,1.0450370609760284e-05,-0.00014873221516609192,0.9999993443489075,0.0001369079382018529,5.4050671175603436e-05,6.660541226012291e-08,0.016277313232421875,0.0020545125007629395,-0.014253616333007812
1701438669.0,542587520.0,-0.0011895298957824707,1.2318603694438934e-05,-0.0001487303525209427,0.9999993443489075,0.00018086031655259474,4.5851523014887745e-05,5.849111285083285e-08,-0.010608553886413574,-3.141164779663086e-05,0.005211830139160156
1701438669.0,565244938.0,-0.0011877622455358505,1.2750737369060516e-05,-0.00014872942119836807,0.9999993443489075,0.00014059807896344881,3.3121586135166394e-05,4.1963971377723595e-08,0.01444709300994873,-0.017916381359100342,-0.01646900177001953
1701438669.0,644677288.0,-0.0011816099286079407,1.3910233974456787e-05,-0.00014872755855321884,0.9999993443489075,0.00023806596235020512,2.868169525821854e-05,3.478778988933059e-08,0.005424678325653076,0.0002740025520324707,0.01747608184814453
1701438669.0,693127434.0,-0.001179208979010582,1.4699995517730713e-05,-0.00014872662723064423,0.9999993443489075,8.131148681685066e-05,3.736914051939318e-05,4.616979036302594e-08,0.019863247871398926,-0.0014190673828125,-0.014868736267089844
1701438669.0,782318864.0,-0.0011760005727410316,1.6528181731700897e-05,-0.000148724764585495,0.9999993443489075,4.953200625097806e-05,4.875698250441769e-05,5.86048897854656e-08,-0.019596636295318604,-0.001019120216369629,-0.02538776397705078
1701438669.0,832413489.0,-0.0011748513206839561,1.796148717403412e-05,-0.00014872290194034576,0.9999993443489075,7.865639304497211e-05,6.903426589120694e-05,8.275909443119733e-08,-0.0013506412506103516,0.016785919666290283,0.0014820098876953125
1701438669.0,842480578.0,-0.0011744676157832146,1.8322840332984924e-05,-0.00014872197061777115,0.9999993443489075,7.621888052590671e-05,7.179976867771409e-05,2.688893603800042e-07,0.00766444206237793,0.007745802402496338,-0.00035572052001953125
1701438669.0,952221756.0,-0.001168951392173767,2.247840166091919e-05,-0.00014871731400489807,0.9999993443489075,8.868514555179933e-05,8.463266369662316e-05,2.708496009589748e-07,-0.017254114151000977,0.003709733486175537,-0.0016565322875976562
1701438669.0,972225645.0,-0.0011676624417304993,2.345070242881775e-05,-0.00014871638268232346,0.9999993443489075,0.00018286489611205346,0.0001409133114033903,1.7038279930925984e-07,0.00798189640045166,-0.01785099506378174,0.0019693374633789062
1701438670.0,61255027.0,-0.0011617271229624748,3.0166469514369965e-05,-0.00014870800077915192,0.9999993443489075,0.00013713491742056526,0.00017026291941622652,3.923216024300581e-07,0.012461304664611816,0.010507404804229736,0.014652252197265625
1701438670.0,93486915.0,-0.0011596065014600754,3.312062472105026e-05,-0.00014870427548885345,0.9999993443489075,0.00010449527374745055,0.00017775182924052808,3.7539285496637307e-07,0.007157266139984131,-0.005595266819000244,0.005496025085449219
1701438670.0,152201180.0,-0.0011562127619981766,3.902800381183624e-05,-0.00014869682490825653,0.9999993443489075,0.00011195661301559872,0.00019735361929031127,4.660800457551046e-07,-0.023279130458831787,-0.001922607421875,-0.007197380065917969
1701438670.0,182227877.0,-0.0011545848101377487,4.20641154050827e-05,-0.00014869309961795807,0.9999993443489075,0.00012288029985082837,0.00022962821358757607,4.835920112982932e-07,0.019901514053344727,0.01072394847869873,-0.0037899017333984375
1701438670.0,212177768.0,-0.0011530248448252678,4.490651190280914e-05,-0.0001486893743276596,0.9999993443489075,0.0001430248377686458,0.0002572219098763294,8.266857226078066e-07,0.010807275772094727,-0.019781827926635742,-0.01808929443359375
1701438670.0,232203356.0,-0.0011521950364112854,4.662759602069855e-05,-0.00014868751168251038,0.9999993443489075,6.576906558670293e-05,0.0001695416712182908,3.8556895373299594e-07,0.007169604301452637,-0.005365550518035889,0.001735687255859375
1701438670.0,334641415.0,-0.0011495687067508698,5.166139453649521e-05,-0.00014868192374706268,0.9999993443489075,1.4078818598034498e-05,4.960357105760406e-05,5.619926360876986e-08,0.0046555399894714355,0.0040819644927978516,0.0038995742797851562
1701438670.0,372145393.0,-0.0011492464691400528,5.254428833723068e-05,-0.00014868099242448807,0.9999993443489075,1.546079997434589e-05,3.494376364119991e-05,4.177037124491369e-08,-0.011671781539916992,-0.002975165843963623,0.012822151184082031
1701438670.0,442932473.0,-0.0011497540399432182,5.2267685532569885e-05,-0.00014868099242448807,0.9999993443489075,-9.766497563216424e-05,-6.149943106129997e-05,-7.684096428715657e-08,-0.01940244436264038,0.0061539411544799805,0.0110626220703125
1701438670.0,495103792.0,-0.0011506928130984306,5.1138922572135925e-05,-0.00014868192374706268,0.9999993443489075,-1.3894003195949127e-05,-4.184900421210616e-05,-5.029316662826002e-08,0.0019351840019226074,0.0008871555328369141,-0.003322601318359375
1701438670.0,532134744.0,-0.0011522946879267693,4.987791180610657e-05,-0.00014868378639221191,0.9999993443489075,-0.00011126466280461683,-7.238304725037974e-05,-8.80688061420328e-08,0.0035512447357177734,-0.011442244052886963,-0.0031461715698242188
1701438670.0,641180314.0,-0.001156901940703392,4.5711174607276917e-05,-0.000148688443005085,0.9999993443489075,-7.362659823920946e-05,-8.326395378325847e-05,-9.905230657050713e-08,0.007049441337585449,-0.0021633505821228027,0.0014028549194335938
1701438670.0,702528997.0,-0.00116005539894104,4.324130713939667e-05,-0.00014869123697280884,0.9999993443489075,-0.00011713599698565886,-8.382245272103568e-05,-1.0303312226704961e-07,0.005106925964355469,-0.0035876035690307617,0.00023365020751953125
1701438670.0,783137580.0,-0.001166447065770626,3.9449892938137054e-05,-0.00014869589358568192,0.9999993443489075,-0.00015241315855762472,-8.80645888679187e-05,-1.0818331340154193e-07,-0.016623318195343018,0.029116034507751465,-0.008058547973632812
1701438670.0,832101080.0,-0.0011701993644237518,3.7418678402900696e-05,-0.00014869868755340576,0.9999993443489075,-0.00014631945112303656,-6.467431811205873e-05,-2.5249967033682184e-07,-0.012807488441467285,0.007405877113342285,0.010171890258789062
1701438670.0,902237110.0,-0.0011741304770112038,3.6034733057022095e-05,-0.000148700550198555,0.9999993443489075,-0.00010678854074899472,-3.209815509684132e-05,-1.1537317393865415e-07,0.0037013888359069824,-0.0017417669296264648,0.0031900405883789062
1701438670.0,942985545.0,-0.001175486482679844,3.596767783164978e-05,-0.000148700550198555,0.9999993443489075,-7.544384192420023e-05,1.0668103279106933e-05,8.06951907632003e-09,-0.0032393932342529297,-0.008863687515258789,0.0017232894897460938
1701438670.0,992252547.0,-0.001178455539047718,3.7318095564842224e-05,-0.00014869868755340576,0.9999993443489075,-0.00010269168234200313,8.370505552082815e-05,2.8446047660492814e-07,-0.009837865829467773,-0.0032588839530944824,0.0021791458129882812
1701438671.0,82526397.0,-0.0011852346360683441,4.489719867706299e-05,-0.00014869030565023422,0.9999993443489075,-0.0001819110015378492,0.00020439335900575503,4.562755122230904e-07,0.004046201705932617,-0.02779334783554077,0.005871772766113281
1701438671.0,134872992.0,-0.001190507784485817,5.1198527216911316e-05,-0.00014868378639221191,0.9999993443489075,-0.00018618735999701225,0.0002093416893703783,5.391775511202973e-07,0.009761452674865723,0.012135684490203857,-0.0013561248779296875
1701438671.0,172338220.0,-0.001195412129163742,5.6614167988300323e-05,-0.00014867819845676422,0.9999993443489075,-0.0002516809792153617,0.0002774112373534922,6.964821299247941e-07,0.004622220993041992,0.025009632110595703,0.014783859252929688
1701438671.0,242594880.0,-0.0012044468894600868,6.588920950889587e-05,-0.00014866888523101807,0.9999993443489075,-0.0007976517368695278,0.0007576621763528635,1.4425305591743058e-06,0.018921196460723877,-0.0051975250244140625,0.007460594177246094
1701438671.0,282608091.0,-0.0012099836021661758,7.011089473962784e-05,-0.000148664228618145,0.9999993443489075,-0.0002711880928816811,0.00018676272969587898,3.9199478139392716e-07,0.01328432559967041,0.018266141414642334,0.03961372375488281
1701438671.0,302606919.0,-0.001212412491440773,7.173139601945877e-05,-0.00014866236597299576,0.9999993443489075,-0.00031739191952638205,0.00020322075166433664,4.6547448529564474e-07,-0.005014955997467041,0.0056386590003967285,-0.0018396377563476562
1701438671.0,362604783.0,-0.0012201201170682907,7.539801299571991e-05,-0.0001486595720052719,0.9999993443489075,-0.00023047981949008057,0.00010214224598509426,1.0631792297776845e-07,0.021613240242004395,-0.005140960216522217,0.011950492858886719
1701438671.0,482016514.0,-0.0012324964627623558,7.939524948596954e-05,-0.00014865584671497345,0.9999992251396179,-0.0001733383292688462,4.410950759991896e-05,8.704759780195349e-08,0.013890087604522705,-6.198883056640625e-05,-0.00229644775390625
1701438671.0,532044779.0,-0.0012365281581878662,7.941573858261108e-05,-0.00014865584671497345,0.9999992251396179,-0.00016406235796449428,-1.5872080319508063e-05,-3.2030882141855406e-08,0.0045861005783081055,0.007073462009429932,0.005001068115234375
1701438671.0,602069799.0,-0.0012418944388628006,7.803644984960556e-05,-0.00014865770936012268,0.9999992251396179,-0.00015361895239644803,-5.929861881749496e-05,-8.495182251639083e-08,-0.01915609836578369,-0.009048521518707275,-0.0056362152099609375
1701438671.0,681944185.0,-0.0012482404708862305,7.548928260803223e-05,-0.00014866143465042114,0.9999992251396179,-0.00016602348575522164,-7.16875597346035e-05,-1.0173408221547762e-07,0.0023381710052490234,0.00021785497665405273,0.022924423217773438
1701438671.0,691987193.0,-0.0012492034584283829,7.51204788684845e-05,-0.00014866236597299576,0.9999992251396179,-0.00019176181978479412,-7.347378746278007e-05,-2.8972121728247257e-07,-0.0013511180877685547,0.0020176172256469727,0.0013380050659179688
1701438671.0,721024967.0,-0.0012518847361207008,7.386598736047745e-05,-0.000148664228618145,0.9999992251396179,-0.00020941622755208978,-0.0001007678248537965,-3.500489545334802e-07,0.0019933581352233887,0.01638782024383545,-0.03104400634765625
1701438671.0,781928616.0,-0.0012555969879031181,7.064174860715866e-05,-0.00014866795390844345,0.9999992251396179,-0.00012034886029036535,-0.00011161207653034898,-3.352534351551871e-07,-0.010757029056549072,0.01243901252746582,-0.014519691467285156
1701438671.0,842002839.0,-0.001257769763469696,6.77863135933876e-05,-0.0001486716791987419,0.9999992251396179,-2.6645104445012334e-05,-8.861408653927617e-05,-3.021234066206782e-07,-0.010577201843261719,-0.014984548091888428,0.0019502639770507812
1701438671.0,891905545.0,-0.001258399337530136,6.578490138053894e-05,-0.00014867447316646576,0.9999992251396179,-3.2328149930517863e-05,-0.00010291639096533922,-3.7901232190646793e-07,0.02901846170425415,-0.004365801811218262,0.018204689025878906
1701438671.0,971871735.0,-0.0012580398470163345,6.232503801584244e-05,-0.00014867819845676422,0.9999992251396179,3.39091209420984e-05,-9.553391712993182e-05,-1.1641356900852298e-07,-0.010782778263092041,0.006110489368438721,-0.010095596313476562
1701438672.0,32951928.0,-0.0012567713856697083,5.928985774517059e-05,-0.00014868192374706268,0.9999992251396179,5.5025778133570723e-05,-0.0001020817411312205,-1.2395250438543707e-07,0.0034302473068237305,-0.00856471061706543,0.0028905868530273438
1701438672.0,65088078.0,-0.0012558838352560997,5.747843533754349e-05,-0.00014868471771478653,0.9999992251396179,4.463138793142597e-05,-9.578470787533653e-05,-2.6062123694532895e-07,0.010496854782104492,0.00020831823348999023,0.008352279663085938
1701438672.0,91891636.0,-0.0012541264295578003,5.5320560932159424e-05,-0.00014868751168251038,0.9999992251396179,0.00011581267164389674,-0.00015250463092146303,-3.7008941174701803e-07,-0.00774914026260376,0.0017657876014709473,-0.0023164749145507812
1701438672.0,144431934.0,-0.0012511853128671646,5.112588405609131e-05,-0.00014869309961795807,0.9999992251396179,8.607373918243736e-05,-0.00014286620784317213,-4.682554762284109e-07,0.020652711391448975,-0.00030159950256347656,-0.015099525451660156
1701438672.0,211814619.0,-0.0012457426637411118,4.4257380068302155e-05,-0.0001487014815211296,0.9999992251396179,0.0001588045554588881,-0.00019788519465910168,-4.252811703931356e-07,-0.006509542465209961,0.012026429176330566,0.00295257568359375
1701438672.0,353391987.0,-0.0012363102287054062,3.133341670036316e-05,-0.0001487182453274727,0.9999992251396179,0.00011626616487760529,-0.00013088062908431656,-3.195852799897246e-07,-0.011801064014434814,-0.0129317045211792,0.00025844573974609375
1701438672.0,371782723.0,-0.0012351488694548607,2.993643283843994e-05,-0.0001487191766500473,0.9999992251396179,9.981801230062968e-05,-0.0001361571500499604,-1.6620316124738304e-07,-0.0009716153144836426,-0.00034230947494506836,-0.014201164245605469
1701438672.0,401810413.0,-0.0012335358187556267,2.816133201122284e-05,-0.00014872197061777115,0.9999992251396179,0.00012658358718384364,-0.00011075032313095069,-3.1950815768386266e-07,0.0009599924087524414,-0.007595241069793701,-0.021413803100585938
1701438672.0,441786168.0,-0.0012313853949308395,2.6240944862365723e-05,-0.00014872383326292038,0.9999992251396179,0.00014773739560218867,-0.00010413205166267258,-1.2415747174878166e-07,-0.0077797770500183105,-0.011180579662322998,0.003772735595703125
1701438672.0,571744813.0,-0.0012280000373721123,2.24187970161438e-05,-0.00014872848987579346,0.9999992251396179,1.872876073909653e-05,-3.837960375219857e-05,-4.681120472522719e-08,-0.012929677963256836,0.018194854259490967,-0.014739036560058594
1701438672.0,593852677.0,-0.0012278174981474876,2.210121601819992e-05,-0.00014872942119836807,0.9999992251396179,1.5310948664224373e-05,-2.4832856431627228e-05,-2.928910589773092e-08,-0.003833472728729248,-0.008754312992095947,0.0031328201293945312
1701438672.0,621823234.0,-0.00122770294547081,2.186466008424759e-05,-0.00014872942119836807,0.9999992251396179,-1.2859893839003557e-05,-7.18893296498294e-06,-8.865098436297723e-09,-0.014431476593017578,0.016374647617340088,0.006603240966796875
1701438672.0,753952273.0,-0.0012255022302269936,2.3842789232730865e-05,-0.00014872662723064423,0.9999992251396179,6.262764249044578e-05,3.988066933647643e-05,2.0529293936032054e-07,0.021930217742919922,0.017798900604248047,-0.0064411163330078125
1701438672.0,761705480.0,-0.0012252796441316605,2.406630665063858e-05,-0.00014872662723064423,0.9999992251396179,5.740924248630927e-05,5.766656334636979e-05,7.133464315617354e-08,0.011198341846466064,-0.01992666721343994,0.018744468688964844
1701438672.0,790662240.0,-0.0012243203818798065,2.464093267917633e-05,-0.0001487256959080696,0.9999992251396179,0.00011970535096670911,4.062990577106466e-05,2.658103655062642e-07,-0.001480400562286377,0.001426994800567627,0.0006570816040039062
1701438673.0,241707904.0,-0.0012005828320980072,2.9253773391246796e-05,-0.00014872010797262192,0.9999992251396179,0.00019126766321153046,8.526232300636212e-05,1.084617519554495e-07,0.0006347894668579102,-0.006564736366271973,0.0033292770385742188
1701438673.0,272034158.0,-0.0011988049373030663,3.0153430998325348e-05,-0.0001487182453274727,0.9999992251396179,7.159459163114619e-05,5.624419145550351e-05,2.514674003224282e-07,0.009561777114868164,-0.0011690258979797363,0.00336456298828125
1701438673.0,341817106.0,-0.0011943541467189789,3.082863986492157e-05,-0.00014871731400489807,0.9999992251396179,0.00012655512732089228,-8.255037940329763e-06,-5.881562013039378e-09,0.01091080904006958,-0.017515957355499268,0.01591777801513672
1701438673.0,371604200.0,-0.0011923648416996002,3.0411407351493835e-05,-0.0001487182453274727,0.9999992251396179,0.00012411136821979988,-3.678887900862063e-05,-3.916648751057441e-08,-0.0072329044342041016,-0.001420140266418457,0.028486251831054688
1701438673.0,421953263.0,-0.0011891648173332214,2.8792768716812134e-05,-0.00014872010797262192,0.9999992251396179,0.00014028838167252689,-8.114385614827713e-05,-2.7403580612328503e-07,0.0047956109046936035,0.007707655429840088,-0.016569137573242188
1701438673.0,481583254.0,-0.0011853044852614403,2.5074928998947144e-05,-0.000148724764585495,0.9999992251396179,0.00013730688669613992,-0.0001507857599204175,-3.6103772897528954e-07,0.007804393768310547,0.000522315502166748,-0.012973785400390625
1701438673.0,880447154.0,-0.0011724689975380898,-1.0387971997261047e-05,-0.0001487676054239273,0.9999993443489075,5.8140980072905023e-05,-0.00017832671871170037,-4.259596279872453e-07,0.022044718265533447,0.006322026252746582,-0.005901336669921875
1701438673.0,891581863.0,-0.0011722799390554428,-1.0770745575428009e-05,-0.0001487676054239273,0.9999993443489075,3.3968633673639064e-05,-6.874804874624012e-05,-8.104059174055232e-08,-0.013812661170959473,-0.0169791579246521,0.008557319641113281
1701438673.0,931385812.0,-0.0011807577684521675,-2.5931745767593384e-05,-0.00015545077621936798,0.9999993443489075,-0.001131039769103732,-0.0032846709126373207,-0.0015128917617562934,0.11045163869857788,-0.01507115364074707,0.07231616973876953
1701438674.0,71570638.0,-0.001178894191980362,-0.00020979251712560654,-0.001333857886493206,0.9999983310699463,0.003377683305443825,0.03797974058689612,-0.006342574837967406,0.8915855884552002,0.4410671591758728,0.030083656311035156
1701438674.0,101369009.0,-0.0013278666883707047,0.000159507617354393,-0.0011396361514925957,0.9999985098838806,-0.018964690506151228,0.008383573283849184,0.018865529771699186,0.9891971945762634,-0.2132575511932373,0.2134237289428711
1701438674.0,141363278.0,-0.0013853712007403374,0.00038172397762537,-0.0009268475696444511,0.9999985098838806,0.003753290691994429,0.007270808246082568,0.0034416852109991755,0.9420859813690186,0.09117269515991211,-0.1673736572265625
1701438674.0,292534183.0,-0.0015855422243475914,0.0009801937267184258,-0.0009282045066356659,0.9999978542327881,-0.0021301737247065673,0.009759873989965234,0.0013819222584614313,0.0913313627243042,-0.14384472370147705,-0.2812681198120117
1701438674.0,331329120.0,-0.001509740948677063,0.0007913010194897652,-0.000488688237965107,0.9999983906745911,-0.04093282894519159,-0.0179980915060766,0.03202976116428666,-0.19372296333312988,0.21579915285110474,-0.08126544952392578
1701438674.0,403987846.0,-0.0017256513237953186,0.001421736553311348,-0.00042562466114759445,0.9999973773956299,-0.0022931737277320213,0.027898702046520955,0.003343616143277196,-0.4378710985183716,0.13102757930755615,1.1858768463134766
1701438674.0,452575880.0,-0.001645534299314022,0.0012717461213469505,2.195127308368683e-05,0.9999978542327881,0.023749248774088065,0.0401591455090479,0.021075427851437813,-0.2084805965423584,0.13639044761657715,0.8061599731445312
1701438674.0,501324656.0,-0.0016712900251150131,0.0013130204752087593,0.0005254847928881645,0.9999975562095642,-0.01801373352678859,0.024363933676672677,0.009687596606079823,0.31110280752182007,-0.0287858247756958,0.12573528289794922
1701438674.0,551495391.0,-0.0018499447032809258,0.0014024926349520683,0.00011788308620452881,0.9999973177909851,-0.012264037834300023,-0.008518840270303349,-0.01976791860696391,0.2717898488044739,-0.06832802295684814,0.2085256576538086
1701438674.0,591208337.0,-0.0018961746245622635,0.0011443141847848892,-0.000680847093462944,0.9999973177909851,-0.0020917386441288294,0.007995428305041663,-0.05347624939091279,-0.15317630767822266,-0.21100729703903198,0.34102344512939453
1701438674.0,640272156.0,-0.0016811732202768326,0.0010399790480732918,-0.0009669549763202667,0.9999975562095642,0.025482226370558962,0.018325078358124695,0.019710520639023923,0.03980660438537598,0.16863197088241577,-0.4770660400390625
1701438674.0,693645943.0,-0.0017466163262724876,0.0012751640751957893,-0.0004851352423429489,0.9999974966049194,-0.018542553958963683,-0.021091868537284255,0.01679373654864015,0.6763184070587158,0.1436251997947693,0.5717239379882812
1701438674.0,731207977.0,-0.0017938381060957909,0.0009688008576631546,-0.00030316784977912903,0.9999977946281433,-0.038169000035076145,0.011020472200577343,0.012800801904903805,-0.08002442121505737,-0.21997559070587158,0.7089786529541016
1701438674.0,791413231.0,-0.0014727693051099777,0.0010649077594280243,0.0002573663368821144,0.9999983310699463,0.025241154610218964,0.014356049152609924,0.014503798855965404,-0.08377331495285034,0.29200857877731323,-0.5342493057250977
1701438674.0,841174456.0,-0.0014839507639408112,0.0004946766421198845,0.0003971122205257416,0.9999988079071045,-0.009299093888060918,-0.02252344211622829,0.0011011667208403752,-0.026034235954284668,-0.2945939302444458,0.2579679489135742
1701438674.0,891162626.0,-0.0013585016131401062,0.0006221896037459373,0.00026556383818387985,0.9999988675117493,0.009319143837229206,-0.027999437477146404,-0.010749375805536752,-0.1549956202507019,-0.05608111619949341,0.7270021438598633
1701438674.0,941118676.0,-0.001240929588675499,0.0007018623873591423,0.00011548027396202087,0.9999989867210388,0.007873192702962634,0.002604708585105868,-0.008219239011807471,0.20790427923202515,0.05153512954711914,-1.2229557037353516
1701438675.0,13897487.0,-0.0009214077144861221,0.0007211277261376381,-2.722162753343582e-05,0.9999992847442627,0.006833125933003762,0.0006324028116144653,-0.0008127426518703914,0.0023230314254760742,0.1665096879005432,-0.1339712142944336
1701438675.0,41155917.0,-0.0007258094847202301,0.0003650793805718422,9.237416088581085e-05,0.9999997019767761,0.012957408515240727,-0.013381043033725533,0.011604377119779899,0.16566365957260132,-0.028856277465820312,-0.375946044921875
1701438675.0,93578913.0,-0.0006120242178440094,1.8026679754257202e-05,0.0003692507743835449,0.9999997615814209,-0.015943924890928995,-0.016749380692287614,0.003042301264138052,-0.054637014865875244,0.07858544588088989,-0.5647220611572266
1701438675.0,142030850.0,-0.00048075802624225616,8.994154632091522e-05,0.00029921717941761017,0.9999998211860657,-0.008933235352973272,0.007068034616743215,0.002924547019114829,-0.12994635105133057,-0.09129863977432251,-0.4585151672363281
1701438675.0,191032560.0,-0.0004070699214935303,-0.0005203941836953163,0.0004486963152885437,0.9999997019767761,0.018898078563354036,0.0024600112923049656,0.0036683367827886992,-0.09103316068649292,-0.22009879350662231,-0.030971527099609375
1701438675.0,253841484.0,-0.00014122575521469116,-0.0003269920125603676,0.0005967710167169571,0.9999997615814209,-0.011833319102465026,0.01188212936445894,2.06570200943579e-05,0.028920531272888184,-0.013602912425994873,-0.5624532699584961
1701438675.0,302093897.0,-0.00028145313262939453,-0.0004944996908307076,0.00035432539880275726,0.9999997615814209,-0.01332617470775687,-0.01661545992732684,-0.01401338916786136,-0.10845750570297241,-0.14329779148101807,0.25896263122558594
1701438675.0,350999385.0,-0.00014824699610471725,-0.0006297705695033073,8.219107985496521e-05,0.9999998807907104,0.03151745445301789,0.02566862340600574,-0.005529914587162122,-0.1530592441558838,0.06053018569946289,-0.08558177947998047
1701438675.0,390997582.0,-0.00012149941176176071,-0.0007373886182904243,0.0001752227544784546,0.9999996423721313,0.0216704114726975,0.0009681590592485655,0.015973814045738867,0.14599651098251343,0.12236911058425903,-1.0797481536865234
1701438675.0,440948229.0,-0.0002543814480304718,-0.0009492076933383942,0.000641864724457264,0.9999992847442627,-0.028408583421990805,-0.041149066446148616,0.01826215229557525,0.07972508668899536,-1.2874603271484375e-05,0.14900493621826172
1701438675.0,493782427.0,-0.0003197118639945984,-0.0009704390540719032,0.0004578735679388046,0.9999994039535522,0.005658632339138292,0.024314665754762647,-0.011901367821987353,-0.3152207136154175,-0.34476006031036377,0.8704872131347656
1701438675.0,542200208.0,-0.0001711742952466011,-0.0008000051602721214,0.00039587169885635376,0.9999995827674866,0.017339232856341296,0.023202492441157824,0.006547345063357962,-0.023830115795135498,0.21423882246017456,-0.3339719772338867
1701438675.0,600953296.0,-0.00024816952645778656,-0.0012382017448544502,0.0003056377172470093,0.9999991655349731,-0.0007868353147609042,0.023631846865068883,-0.008575546603416482,0.07819926738739014,-0.32156383991241455,0.8317108154296875
1701438675.0,640966132.0,-0.00023515988141298294,-0.0008663525804877281,0.0004171021282672882,0.9999995231628418,0.005531871599696007,-0.016669734400661808,0.0036987127256906944,-0.049124956130981445,-0.027126014232635498,0.11170101165771484
1701438675.0,702647858.0,-0.0001571308821439743,-0.0011502597481012344,0.00069406908005476,0.9999990463256836,0.005132832027787334,-0.027748147856886892,0.0068101709153926375,0.024337291717529297,0.026006877422332764,0.407958984375
1701438675.0,750938072.0,-8.528865873813629e-05,-0.0008275704458355904,0.0010425858199596405,0.9999991059303284,0.004439439894838705,0.061602608197438256,0.014038014322574068,0.2012801170349121,-0.09028714895248413,-0.37380218505859375
1701438675.0,790894575.0,-1.909211277961731e-07,-0.0006764717400074005,0.0008688578382134438,0.9999994039535522,0.0030132687440200512,0.02225960305782112,-0.022345984972779794,-0.2576056122779846,-0.07859903573989868,-0.0832681655883789
1701438675.0,850912995.0,8.987542241811752e-05,-0.0006580483168363571,0.00039920397102832794,0.9999997615814209,0.00728137493719189,0.019673851877335224,-0.020779567857483784,-0.15461379289627075,0.16478753089904785,0.3762025833129883
1701438675.0,890924012.0,9.782984852790833e-05,-0.0002201385796070099,0.0002201935276389122,0.9999999403953552,-0.005455256580044618,0.051408726523413474,0.0021183936427832265,0.1842396855354309,0.004647374153137207,-0.3700828552246094
1701438675.0,942848670.0,6.445590406656265e-05,-0.0003953976556658745,0.0001162942498922348,1.0,0.014963474606173914,0.014807650502294292,0.00216544654598674,0.09482461214065552,-0.18117797374725342,-0.4702939987182617
1701438675.0,990974064.0,0.00035033002495765686,-0.0004165126010775566,0.0005974844098091125,0.9999997019767761,0.019319560438402703,-0.011320355333513677,0.020001618603063237,0.01057654619216919,0.2640960216522217,-0.9786596298217773
1701438676.0,39814094.0,0.000207546167075634,0.0001771915704011917,0.001047925092279911,0.999999463558197,-0.024933680522987774,-0.028552812424642342,0.0012725130569164462,-0.09753435850143433,-0.12040853500366211,-0.3044099807739258
1701438676.0,90811063.0,0.0001445850357413292,0.00020292587578296661,0.0007095048204064369,0.9999997615814209,0.000293925751852686,-0.005598875663672569,-0.016652319774956136,0.09456539154052734,-0.27270323038101196,0.6381158828735352
1701438676.0,150279761.0,0.00018600933253765106,0.0005908459424972534,0.00038641225546598434,0.9999998211860657,-0.032396361664110286,0.005409385878840105,0.008114213235495766,0.09393942356109619,0.10348355770111084,-0.2833995819091797
1701438676.0,190790657.0,0.0002561453729867935,0.0007722824811935425,0.0005031386390328407,0.9999995231628418,-0.03549635191545962,-0.044051470236994926,0.005984809383913667,0.07158595323562622,0.18903493881225586,0.5787792205810547
1701438676.0,240790747.0,0.00034345127642154694,0.0006774468347430229,0.0008252458646893501,0.9999993443489075,0.02485382210709739,0.014497686025800505,0.02048374706144291,-0.08250987529754639,-0.22562247514724731,0.6028146743774414
1701438676.0,290907396.0,0.0005467366427183151,0.0008816821500658989,0.0012160949409008026,0.9999986886978149,0.017118239670798275,0.030633654024053037,0.013722884872706979,0.4141007661819458,0.3047069311141968,-1.189692497253418
1701438676.0,343433240.0,0.0005249073728919029,0.0006362097337841988,0.0010083429515361786,0.9999991059303284,-0.006275706346865394,-0.019850420978554002,-0.008857768956955885,0.10083693265914917,-0.12178432941436768,-0.5651912689208984
1701438676.0,391575708.0,0.0006241779774427414,0.0010794801637530327,0.000986720435321331,0.9999987483024597,0.0059922395307862985,-0.0218975477367411,-0.012982470421416837,-0.3488079905509949,-0.1785215139389038,0.45635223388671875
1701438676.0,441246231.0,0.0007014041766524315,0.0012275362387299538,0.0007968880236148834,0.9999987483024597,0.004096396903850649,0.0009687274535333611,-0.006713170177026923,-0.22156327962875366,0.1344631314277649,0.5438451766967773
1701438676.0,491055775.0,0.0008469298481941223,0.001073039136826992,0.0009877542033791542,0.9999986290931702,-0.0019596633594866015,0.06467251377346303,0.028434636061387568,0.03392231464385986,0.07237887382507324,0.4532661437988281
1701438676.0,541230762.0,0.0009987112134695053,0.0007412126287817955,0.0015731006860733032,0.9999979734420776,0.0047053870113803456,0.002100406940594669,0.025392535784624432,0.33875173330307007,-0.0694570541381836,-0.5821723937988281
1701438676.0,601089638.0,0.0010798349976539612,0.0007644770666956902,0.0013459017500281334,0.9999982714653015,0.009366325330263202,0.012686617850695506,-0.038639371155557926,-0.03584146499633789,0.25853729248046875,0.6311883926391602
1701438676.0,641101146.0,0.0011206334456801414,0.0009170752018690109,0.0009831609204411507,0.9999985098838806,-0.0030248081130179252,0.020302777256002456,-0.00837401881012391,-0.05974113941192627,-0.0909738540649414,0.036980628967285156
1701438676.0,691126797.0,0.0010899445042014122,0.0005183909088373184,0.0006203539669513702,0.9999990463256836,0.020323284528086998,0.016180561847437283,-0.007615747069917723,-0.1639937162399292,-0.28055447340011597,0.16669178009033203
1701438676.0,743314864.0,0.0013045035302639008,0.00028717610985040665,0.0007257936522364616,0.999998927116394,0.01024012958441887,-0.015025219370075074,0.008905478912121411,-0.14771872758865356,0.21624493598937988,-0.14083576202392578
1701438676.0,792194338.0,0.0011349599808454514,0.0002661747857928276,0.0011232886463403702,0.9999987483024597,-0.016493494308692132,-0.043043609282553366,0.006327333579925195,-0.07852029800415039,-0.03522294759750366,0.26500797271728516
1701438676.0,840669439.0,0.0010018739849328995,9.696371853351593e-05,0.0014139236882328987,0.9999985098838806,-0.003458160186657592,0.013291247922540411,0.002856248023331845,0.3759051561355591,-0.048428475856781006,0.72698974609375
1701438676.0,900689324.0,0.0009496267884969711,0.00022627972066402435,0.0014217803254723549,0.9999985694885254,-0.02893933405761905,0.028475843426194473,0.006375053033659598,0.21937847137451172,0.14790284633636475,-0.19768428802490234
1701438676.0,952521842.0,0.0008703963831067085,-0.00023178011178970337,0.0011098096147179604,0.9999989867210388,-0.0068383889986413935,-0.022237342886582905,-0.01030053073862022,0.3302742838859558,-0.013605892658233643,0.2510366439819336
1701438677.0,946296.0,0.0009962189942598343,-0.00018535833805799484,0.0010852282866835594,0.999998927116394,0.027195855688035488,0.014026184220502948,0.009181551468239376,-0.03901100158691406,-0.03836393356323242,-0.9745903015136719
1701438677.0,81098224.0,0.0008291667327284813,-0.000940987840294838,0.0018475605174899101,0.9999974966049194,0.010344556921579593,-0.04196899805232048,0.007298501409752935,0.21588313579559326,0.23119127750396729,-0.3685617446899414
1701438677.0,100996694.0,0.0007724668830633163,-0.0008461493998765945,0.0019088909029960632,0.9999975562095642,0.002021035573000196,0.024449766736967964,0.0057837480623926605,0.381497859954834,0.045595645904541016,-0.2863140106201172
1701438677.0,140753951.0,0.0007031150162220001,-0.0005073901265859604,0.0019062990322709084,0.9999977946281433,0.006732804401478876,-0.0008342788633945331,-0.0005570130147356695,-0.31762373447418213,-0.03166759014129639,0.2798576354980469
1701438677.0,193502078.0,0.0006392849609255791,-0.000547562725841999,0.0016316911205649376,0.9999983310699463,-0.00010893214313798648,-0.015090030540112837,-0.022690815981564236,-0.03332555294036865,0.014448881149291992,0.11374092102050781
1701438677.0,240986452.0,0.0006546573713421822,-0.0006403699517250061,0.0013702372089028358,0.9999986886978149,-0.008325736265380896,0.05184778372603649,-0.0046344205682412746,0.013889312744140625,-0.009009718894958496,0.29140567779541016
1701438677.0,300562114.0,0.0006891917437314987,-0.0005170693621039391,0.001705738715827465,0.9999982118606567,-0.0010907230924263954,0.01956165959908641,0.024781452987408605,-0.09619325399398804,0.13200902938842773,-0.0962982177734375
1701438677.0,353122665.0,0.0007009822875261307,-0.0011036284267902374,0.001990470103919506,0.9999971985816956,0.007432936013241253,0.003944253480099912,0.0033232481564748305,0.2630058526992798,0.10146236419677734,0.15224838256835938
1701438677.0,401090044.0,0.0006136763840913773,-0.000627727247774601,0.0017852783203125,0.9999980330467224,-0.002669511511355818,0.004200985533179197,-0.011966957798336297,0.04171156883239746,0.12318098545074463,0.47802734375
1701438677.0,450355371.0,0.0006598839536309242,-0.0007257638499140739,0.0012812567874789238,0.9999986886978149,0.017763012647315217,0.03947804619631472,-0.019228754430597367,0.038435935974121094,0.21402627229690552,0.6001205444335938
1701438677.0,490347116.0,0.0007444517686963081,-0.0009038383141160011,0.0012142341583967209,0.9999985694885254,0.013720723930999391,0.00934676416943591,0.006000439252665001,0.15831029415130615,0.16844415664672852,-0.7383460998535156
1701438677.0,540413477.0,0.0005117626860737801,-0.0006194105371832848,0.0011239657178521156,0.9999991059303284,-0.019645564143312578,-0.03454490755143771,-0.002038449688359915,0.08726274967193604,-0.14079630374908447,0.012845993041992188
1701438677.0,593078278.0,0.0003642057999968529,-0.000738099217414856,0.0009962040930986404,0.9999991655349731,-0.00014039596557153795,-0.0193312785361818,-0.008082042297553762,0.07129132747650146,-0.10933959484100342,-0.3445558547973633
1701438677.0,648286097.0,0.00037367455661296844,-0.0004308251664042473,0.0015049232169985771,0.9999987483024597,-0.05311663123954363,0.045945612955338035,0.028067275242458757,0.24374425411224365,0.06931424140930176,1.188675880432129
1701438677.0,700429385.0,0.0003434782847762108,-0.0005311844870448112,0.0015527503564953804,0.9999985694885254,-0.008806313419543191,-0.029950845143919103,-0.008073395231492364,0.1193695068359375,-0.1369842290878296,0.5318136215209961
1701438677.0,753155929.0,0.0005650371313095093,-0.00034203100949525833,0.0015438850969076157,0.9999986290931702,0.02634180990328885,0.014455815926094646,0.0154817555089416,-0.05686068534851074,0.1219373345375061,-0.7268600463867188
1701438677.0,801826017.0,0.00041736382991075516,7.5523741543293e-05,0.0018638726323843002,0.999998152256012,-0.019693374678966775,0.01934553348604744,0.014079892302479222,-0.17189675569534302,-0.13868659734725952,0.05678844451904297
1701438677.0,850223082.0,0.0005063675343990326,-0.000247221440076828,0.002148617058992386,0.9999975562095642,0.005717977746467172,0.04157315671261523,0.003217800149768174,-0.18784892559051514,-0.1710745096206665,-0.15512657165527344
1701438677.0,890451542.0,0.0005193678662180901,-0.00028733164072036743,0.0024442728608846664,0.9999968409538269,0.009589714530479423,-0.03130384589527548,0.020672875969338728,0.181959867477417,0.08206260204315186,0.023149490356445312
1701438677.0,940180577.0,0.0005318783223628998,2.4498440325260162e-05,0.0024279672652482986,0.9999969005584717,0.0024141063440121717,-0.021054193847761346,-0.005886265354470336,0.21669131517410278,0.11376160383224487,-0.6163558959960938
1701438678.0,216494.0,0.0007174685597419739,0.00038063619285821915,0.0018541468307375908,0.9999979734420776,0.008937062448655563,0.038064103430004236,-0.01632163617496776,0.01928955316543579,0.0028477907180786133,0.08838748931884766
1701438678.0,42466392.0,0.0008434224873781204,0.0003062756732106209,0.0018429001793265343,0.9999979734420776,0.0032995603116549566,0.020489384823203467,0.0030008030799674934,-0.18062752485275269,0.005982041358947754,0.3835420608520508
1701438678.0,100163157.0,0.00092308409512043,0.00011234264820814133,0.001895497553050518,0.9999977350234985,0.010429819259205147,0.01446723526689969,-0.0006439782646448884,0.24302637577056885,0.10107553005218506,-0.20338916778564453
1701438678.0,170367929.0,0.0008334564045071602,6.247963756322861e-05,0.0026444019749760628,0.9999961256980896,-0.011124512008921861,-0.027938119909309753,0.011050721006962192,-0.04795479774475098,0.0405573844909668,0.6937723159790039
1701438678.0,220109971.0,0.0010368097573518753,0.00035902392119169235,0.00270224642008543,0.999995768070221,-0.0007698586695345711,-0.02729624618788783,-0.006370227302440497,0.2661418914794922,-0.05336123704910278,0.4791402816772461
1701438678.0,270101296.0,0.0010279836133122444,0.0009368760511279106,0.0021106507629156113,0.9999967813491821,0.006594478491009253,0.0018427729838599298,-0.027156052478541408,0.10307848453521729,0.055975377559661865,-0.17955780029296875
1701438678.0,300088078.0,0.0009685177356004715,0.0005822237581014633,0.0018520653247833252,0.999997615814209,-0.006649728174030706,-0.00982376768295177,-0.015389379456496231,0.23617267608642578,0.02485060691833496,-0.18716907501220703
1701438678.0,340351089.0,0.0009016692638397217,0.0007466571405529976,0.001633654348552227,0.9999979138374329,-0.000869110826619748,-0.0036900167862509337,-0.015832312994239345,-0.21890562772750854,-0.20701903104782104,0.28856563568115234
1701438678.0,390156333.0,0.0009910985827445984,0.0009576184675097466,0.0015877094119787216,0.9999978542327881,0.009274600336675359,0.029703185981223887,0.007327149992764375,-0.009799599647521973,0.09803420305252075,-0.2295398712158203
1701438678.0,460014715.0,0.0009068548679351807,0.0005760900676250458,0.002224702388048172,0.9999969005584717,0.030009684791087874,-0.0034395859413551013,0.0057502672509707545,0.33265841007232666,0.17831379175186157,-0.8934488296508789
1701438678.0,500010982.0,0.0008937399834394455,0.0008891159668564796,0.002251211553812027,0.9999966621398926,0.03419449456599042,0.03123029443664026,-0.0007174950951255023,-0.3022415041923523,-0.01178431510925293,-0.841069221496582
1701438678.0,550050453.0,0.0006274757906794548,0.001120392233133316,0.0023773573338985443,0.9999964237213135,-0.02766046638721455,0.011359714854627927,0.010139311456813193,0.08579885959625244,0.04608452320098877,0.03241157531738281
1701438678.0,603011167.0,0.0005528926849365234,0.0008690580725669861,0.002252190373837948,0.9999969601631165,0.0006390691153078594,0.03275968212094938,-0.0016632099420394813,0.22710531949996948,-0.07259577512741089,0.2852659225463867
1701438678.0,651504012.0,0.00043106265366077423,0.0009971149265766144,0.002564358524978161,0.9999961853027344,-0.00018761554987915208,0.008960087845003932,0.009243498216262303,0.07783782482147217,0.1699225902557373,-0.5927114486694336
1701438678.0,699928107.0,0.0003452775999903679,0.0004220549017190933,0.002727234736084938,0.9999961853027344,-0.001790405342116617,-0.04471818609641104,0.003744346666308025,0.10083997249603271,-0.12466531991958618,-0.5387706756591797
1701438678.0,740219365.0,0.0003341343253850937,0.0007669730111956596,0.002695038914680481,0.9999960064888,-0.005232257609844511,0.08134058129800464,0.0005730098706894206,0.0536801815032959,-0.08386474847793579,1.1748409271240234
1701438678.0,790196948.0,0.0003030942752957344,0.000791698694229126,0.0024363482370972633,0.9999967217445374,-0.0028766056493615406,0.0033415207913812285,-0.020212022920046393,0.20456963777542114,0.007548272609710693,-0.13863849639892578
1701438678.0,849844743.0,0.00027604028582572937,0.0005043055862188339,0.0019804388284683228,0.9999979138374329,0.01691493849990121,0.02298884633367141,-0.03193027667250676,0.0502629280090332,0.22194522619247437,0.005366325378417969
1701438678.0,899893431.0,0.00014809425920248032,0.0006279731169342995,0.0020631439983844757,0.999997615814209,-0.007869627918809434,-0.025152308213383164,0.0217680595248,-0.07864558696746826,-0.12797009944915771,-0.644195556640625
1701438678.0,971580875.0,0.0001183943822979927,-4.3839216232299805e-05,0.002889559604227543,0.9999958276748657,-0.012595080609366725,-0.04092011165377587,0.020886453776457266,0.07447797060012817,-0.11095196008682251,-0.28911781311035156
1701438678.0,999870866.0,0.00014488492161035538,0.0001595970243215561,0.0031051533296704292,0.9999951720237732,-0.020217713633141964,0.03834062635234735,0.01092028147960709,0.24631339311599731,0.004712343215942383,-1.1895561218261719
1701438679.0,51256010.0,-4.21963632106781e-05,0.0001254454255104065,0.0029642852023243904,0.9999956488609314,-0.01206456292147816,-0.003324602161309012,-0.01806852093624008,-0.1651531457901001,-0.13662010431289673,-0.4661674499511719
1701438679.0,100077049.0,1.9650906324386597e-06,-0.0001499047502875328,0.0024150731042027473,0.999997079372406,0.022361294569006637,-0.0013848585650326369,-0.020259470561255415,-0.15690916776657104,0.07255721092224121,-0.6764869689941406
1701438679.0,139824153.0,-1.963786780834198e-05,-0.00016472861170768738,0.0022415630519390106,0.9999974966049194,0.016642817255499105,0.02188084899733799,0.004690297738185921,0.27218204736709595,0.24184125661849976,-0.6455984115600586
1701438679.0,189726962.0,-0.000166269950568676,-0.0004188539460301399,0.002393868751823902,0.9999970197677612,-0.026199789918895117,-0.020565681447375275,0.009153767109553077,0.2641061544418335,0.020682156085968018,0.09633827209472656
1701438679.0,259901585.0,-2.1712854504585266e-05,-0.000789174810051918,0.002822526730597019,0.999995768070221,-0.005376956651323819,0.024735260939431437,0.02509400930677308,-0.11806243658065796,0.0937584638595581,0.8302373886108398
1701438679.0,310002515.0,-0.00021367613226175308,-0.0006605563685297966,0.003057190217077732,0.9999950528144836,-0.016813375151762858,-0.010642623965603976,-0.00046903085406071364,0.017235517501831055,-0.15215450525283813,0.7743005752563477
1701438679.0,349703394.0,-7.431581616401672e-05,-0.0010264171287417412,0.0029930155724287033,0.9999949932098389,0.002479263663774701,0.027524465408381365,0.0037975972285276835,-0.04603254795074463,-0.3600645065307617,0.07951068878173828
1701438679.0,399687459.0,-8.056778460741043e-05,-0.000993478111922741,0.0031474288552999496,0.9999945759773254,0.004531913775109106,0.012464205672358744,-3.157014038974514e-05,-0.34182924032211304,-0.0007361173629760742,0.05324363708496094
1701438679.0,452254452.0,-5.886610597372055e-05,-0.001401457004249096,0.003254048526287079,0.9999937415122986,0.003918391325530846,-0.03413162763458818,0.009024232782804151,0.029976248741149902,-0.002764284610748291,0.32508087158203125
1701438679.0,500610509.0,1.4374963939189911e-05,-0.0012778174132108688,0.003426901064813137,0.9999933838844299,0.008471604771001263,0.006398989806943556,0.004582877447158615,0.09508699178695679,0.01873558759689331,-0.31636810302734375
1701438679.0,549638218.0,0.00010141916573047638,-0.001344861462712288,0.0035385238006711006,0.9999927878379822,0.0007920180374453627,0.01622980224266387,-0.005894537966104131,0.20987659692764282,0.3419950604438782,-0.5270881652832031
1701438679.0,589600871.0,0.00011336710304021835,-0.0017085066065192223,0.003413110040128231,0.9999927282333374,-0.017790629238151893,0.008489777679748801,-0.013908254060463927,-0.040727436542510986,0.09266674518585205,0.3179931640625
1701438679.0,649619145.0,7.483270019292831e-05,-0.0015125274658203125,0.0026638004928827286,0.9999952912330627,-0.0029241890012297123,-0.00983223848398559,-0.005320484180303305,-0.44570112228393555,-0.1959916353225708,-0.03623199462890625
1701438679.0,709556379.0,0.00015512574464082718,-0.0016235802322626114,0.002647602930665016,0.999995231628418,0.006715708734604214,-0.03051044416528627,0.021864587067777337,0.020938456058502197,0.23530596494674683,-0.018222808837890625
1701438679.0,749527130.0,0.00017705466598272324,-0.0015243897214531898,0.0033694570884108543,0.9999932050704956,-0.02379607401964703,0.06773801109858375,0.04156106376779308,0.14625239372253418,0.21536844968795776,0.38010406494140625
1701438679.0,799521579.0,2.2132880985736847e-05,-0.0019508423283696175,0.004094583913683891,0.9999897480010986,-0.008229838447009134,0.0013870867557515725,0.015582936166632233,0.3057413101196289,-0.22715741395950317,0.076324462890625
1701438679.0,852196200.0,0.00010008923709392548,-0.001837664283812046,0.003918331116437912,0.9999906420707703,0.02687356411103536,-0.007979076980796229,-0.018241588974198454,0.2744874954223633,0.11733299493789673,-0.8721599578857422
1701438679.0,900826084.0,-5.1866285502910614e-05,-0.0014948192983865738,0.0032890476286411285,0.9999935626983643,-0.02465654450230348,-0.003068353551609349,-0.014521003206543792,0.09333020448684692,0.20521050691604614,-0.08139801025390625
1701438679.0,949571948.0,-0.00013257097452878952,-0.0016395263373851776,0.0029931850731372833,0.9999942183494568,-0.013981251603261009,-0.023930650546269704,-0.014744049976203542,-0.10970473289489746,-0.22586095333099365,0.23379230499267578
1701438679.0,999518635.0,0.00011099781841039658,-0.0015708748251199722,0.0031123673543334007,0.9999938607215881,0.036408168038120026,0.02043293236152615,0.015310795682212577,-0.4228697419166565,-0.06619501113891602,-0.986724853515625
1701438680.0,79518453.0,7.739290595054626e-05,-0.0019046152010560036,0.004077100194990635,0.999989926815033,0.01562741637685063,-0.012921525894183281,0.006844240263666323,-0.06200385093688965,0.061158716678619385,0.49201488494873047
1701438680.0,109587378.0,0.00010942481458187103,-0.0015415940433740616,0.004137969575822353,0.9999902248382568,0.018763513310051362,0.01822226638659389,0.006804447093926138,-0.24693340063095093,-0.23260420560836792,-0.05506420135498047
1701438680.0,159509920.0,3.535766154527664e-05,-0.00126674585044384,0.003945810720324516,0.9999914169311523,-0.011967556986903119,0.032119603142363,-0.013838817283838265,-0.22807735204696655,-0.004685878753662109,0.22669696807861328
1701438680.0,221569144.0,0.0002957722172141075,-0.0019081979990005493,0.003844199702143669,0.9999907612800598,0.011981946837639378,-0.004585475401684217,-0.004852649498844952,-0.22667312622070312,-0.17147880792617798,0.12618160247802734
1701438680.0,249470050.0,0.0002899644896388054,-0.0013358965516090393,0.00390514824539423,0.9999914765357971,0.007197996742759905,0.01773235612992162,0.012168603999164435,-0.3696119785308838,-0.23099738359451294,-0.37627220153808594
1701438680.0,302628632.0,0.00041962042450904846,-0.001407993957400322,0.004014020785689354,0.9999908804893494,0.0010399653805642209,0.011338430115609246,0.00039512214434232366,-0.2915748357772827,0.09522712230682373,-0.24204635620117188
1701438680.0,348520241.0,0.000524512492120266,-0.001987188123166561,0.003997586667537689,0.999989926815033,0.008077243721648674,0.037368405388922624,-0.010017623559264088,-0.0817076563835144,0.269658625125885,0.45226001739501953
1701438680.0,398347686.0,0.0005354676395654678,-0.0016401754692196846,0.00399727001786232,0.9999905228614807,-0.00027676392163231226,0.011945925975623491,-0.007999003405696323,0.08112436532974243,-0.025553882122039795,-0.2144451141357422
1701438680.0,462108230.0,0.0006660353392362595,-0.0017349300906062126,0.003663739189505577,0.9999915361404419,0.006425665651705309,0.00435832905979898,0.00411629946928067,-0.01274573802947998,0.11800932884216309,0.8130970001220703
1701438680.0,509597906.0,0.0006376896053552628,-0.0014565344899892807,0.003967416472733021,0.9999908208847046,-0.01853813707523126,0.047367621737690116,0.017026969843092092,0.19238853454589844,0.1347845196723938,0.9076147079467773
1701438680.0,549193354.0,0.0005686823278665543,-0.0019530728459358215,0.004271064884960651,0.9999887943267822,-0.02219810562233986,-0.02151574015775807,0.01922941777144818,-0.11936330795288086,-0.35671406984329224,-0.3232450485229492
1701438680.0,621842077.0,0.00046265311539173126,-0.00211337860673666,0.004532025195658207,0.9999874234199524,-0.028161688696533314,0.0303145366672398,-0.007276344937324132,0.04743778705596924,-0.05047166347503662,0.6207618713378906
1701438680.0,648330614.0,0.0005266405642032623,-0.001853213645517826,0.004622413776814938,0.9999874234199524,-0.03054880128907624,0.0009540612554264159,0.013532928893229249,-0.11740607023239136,0.14780700206756592,0.7104501724243164
1701438680.0,701906707.0,0.00043140631169080734,-0.0017312131822109222,0.004369117319583893,0.9999889135360718,-0.02364813141268809,-0.002023403910985167,-0.024279481366878308,-1.8529253005981445,0.07615655660629272,0.936793327331543
1701438680.0,750065898.0,0.0003622276708483696,-0.002219799906015396,0.003883885219693184,0.9999899864196777,-0.015890849327367722,-0.0334182333236661,-0.0023879560567634265,-0.8591291308403015,-0.10041260719299316,0.7254829406738281
1701438680.0,799160323.0,0.0006445012986660004,-0.0019846567884087563,0.004165784455835819,0.9999892115592957,-0.010309403397664835,-0.025631501684273583,0.0085491221667294,-0.8929680585861206,0.1791190505027771,-0.0810394287109375
1701438680.0,861838389.0,0.0005214689299464226,-0.0017096782103180885,0.004397442564368248,0.9999887943267822,0.006950821811682488,-0.006002792102759318,0.01717988217463785,-1.044108510017395,-0.0017414689064025879,-0.17026519775390625
1701438680.0,910597049.0,0.0005500828847289085,-0.0018340880051255226,0.00454375147819519,0.9999879002571106,-0.0006457443423268887,-0.0014635993547327522,0.0017345768574093365,-1.0112556219100952,-0.11879497766494751,0.20688724517822266
1701438680.0,959114896.0,0.0005082795396447182,-0.0018978463485836983,0.0038822274655103683,0.9999905824661255,-0.00035835395796861064,-0.0013319202965461465,-0.026078143659703134,-0.4472530484199524,-0.006744325160980225,0.03623485565185547
1701438680.0,999116758.0,0.0005167536437511444,-0.0020452914759516716,0.00386616587638855,0.9999903440475464,-0.001869747121136969,-0.01534404200479246,0.008147864486241578,1.340905785560608,0.016518115997314453,0.1456279754638672
1701438681.0,49000170.0,0.0004787016659975052,-0.0019308440387248993,0.0046521928161382675,0.9999871850013733,-0.0023290636781580095,-0.01359825294046764,0.02854353755414248,0.45067059993743896,0.03348773717880249,0.20585250854492188
1701438681.0,99030594.0,0.0003681294620037079,-0.0019657546654343605,0.004252384416759014,0.9999889731407166,-0.008877451880346629,-0.008697512750929136,-0.048288437147401365,-0.29927289485931396,-0.21407443284988403,0.10954856872558594
1701438681.0,150836367.0,0.00036675576120615005,-0.0020293276757001877,0.003996280953288078,0.999989926815033,0.0011501702543813834,0.003425220384582747,0.00944356902698865,-0.1750141978263855,0.2241479754447937,0.03704357147216797
1701438681.0,198988892.0,0.00034729205071926117,-0.0020290203392505646,0.004454495385289192,0.9999879598617554,-0.0007606938804259771,-0.00019501140782534682,0.017403867795956016,-0.10495692491531372,-0.06102949380874634,0.038802146911621094
1701438681.0,259016576.0,0.0003986647352576256,-0.002114354632794857,0.004995180293917656,0.9999852180480957,0.0019149467747647726,-0.005456705579785571,0.023262923196322078,0.2598293423652649,0.036791205406188965,0.059165000915527344
1701438681.0,298923429.0,0.00042792409658432007,-0.0020623449236154556,0.0053495317697525024,0.9999834299087524,0.0023733767220744787,-0.0012582804516174805,-0.0010766806156600377,0.4403897523880005,-0.07155114412307739,0.03891563415527344
1701438681.0,358422789.0,0.0004275292158126831,-0.0021269982680678368,0.004581871442496777,0.9999871850013733,0.0008162283496893358,-0.006337711615173994,-0.0055949612070348665,-0.11597156524658203,0.014622092247009277,0.004665374755859375
1701438681.0,408877061.0,0.00037318654358386993,-0.00214554276317358,0.004627004265785217,0.9999869465827942,-0.003988853206225359,-0.004976719871877383,-0.003187646096384961,-0.1593250036239624,-0.04176139831542969,0.040757179260253906
1701438681.0,448794109.0,0.0003467760980129242,-0.0022028423845767975,0.004536226391792297,0.9999873042106628,0.0007682084150839152,-0.0006787626002428976,0.008444420968811915,0.03545588254928589,-0.023256003856658936,0.081451416015625
1701438681.0,498901101.0,0.0003378409892320633,-0.0022290823981165886,0.004815900698304176,0.9999858140945435,0.00030041249254670867,0.0008629741919230476,0.012176547883267117,0.08164983987808228,-0.07335466146469116,0.08493518829345703
1701438681.0,551693835.0,0.00035786349326372147,-0.0021940916776657104,0.005148831754922867,0.9999842643737793,0.0014511754240339003,-0.005084967240491543,0.004528154637794021,0.33550095558166504,-0.0611797571182251,0.058994293212890625
1701438681.0,598371974.0,0.0003852229565382004,-0.002098066732287407,0.005137890577316284,0.9999845027923584,0.0030753586318869788,-0.00020361431765708748,0.011084089039869948,0.20454829931259155,-0.0635061264038086,0.08454513549804688
1701438681.0,658847366.0,0.00041461456567049026,-0.0021438151597976685,0.0051189446821808815,0.9999845623970032,0.0007749624906297994,-0.011777216063984375,-0.004228887937138397,-0.15186935663223267,-0.04429924488067627,0.11976337432861328
1701438681.0,711453324.0,0.0003943629562854767,-0.0021277135238051414,0.004926666617393494,0.9999854564666748,-0.0010657175684932786,0.0002575805036548185,-0.0046425284059574785,-0.11774641275405884,-0.06230294704437256,-0.024781227111816406
1701438681.0,738885245.0,0.00038524437695741653,-0.002130715176463127,0.005094385705888271,0.9999846816062927,0.000325049636031125,0.005609629729374918,0.020084965036642623,0.014207601547241211,0.011663615703582764,0.07017326354980469
1701438681.0,808902899.0,0.0003097439184784889,-0.002143354155123234,0.0052435630932450294,0.9999839663505554,-0.0007949536912191635,0.001392601171448027,0.0010582807561564042,0.197515070438385,0.008437037467956543,-0.0033359527587890625
1701438681.0,848843674.0,0.00024321582168340683,-0.0021263835951685905,0.005232919007539749,0.999984085559845,-0.0031705803140584595,0.0061695385862064155,0.007568793522333184,0.13634729385375977,-0.04985499382019043,0.05107402801513672
1701438681.0,898991156.0,0.00021521560847759247,-0.0020918892696499825,0.005301984958350658,0.9999837279319763,-0.002892339191690227,-0.004942715110726787,0.0026476326860857815,0.05394315719604492,-0.03679251670837402,0.12630462646484375
1701438681.0,951395379.0,0.0002306513488292694,-0.002202862873673439,0.005626802332699299,0.9999817609786987,-0.002736786424442364,0.03299364722347342,0.008083544866152783,0.3063797354698181,-0.15390270948410034,-0.012701988220214844
1701438682.0,173365.0,0.00022353418171405792,-0.0017107157036662102,0.005399910733103752,0.9999839067459106,-0.0021569593607131047,0.018773441469996422,-0.007148779280667407,-2.2036235332489014,-0.029839277267456055,0.0758218765258789
1701438682.0,49007977.0,0.00024664588272571564,-0.0018116272985935211,0.00538911297917366,0.9999837875366211,0.001289582303177885,-0.0033897095532812627,-0.011185857295523152,-0.36085599660873413,0.15474671125411987,0.1256704330444336
1701438682.0,110285148.0,0.00022712349891662598,-0.001749192364513874,0.0049596382305026054,0.9999862313270569,0.00021704554428516256,0.010683703758119816,-0.005706080541785847,0.027990877628326416,0.018536686897277832,0.01678180694580078
1701438682.0,160015119.0,0.0002443213015794754,-0.0016956496983766556,0.005140580236911774,0.99998539686203,0.0007029115319434537,0.010315747994102589,0.006388222029835979,0.11883628368377686,0.018199145793914795,0.014704704284667969
1701438682.0,218348725.0,0.0002383170649409294,-0.0016194283962249756,0.004953702911734581,0.9999863505363464,0.0008473775750659426,0.0015075968330756867,-0.005222544126545213,-0.026980459690093994,-0.04815858602523804,0.0044231414794921875
1701438682.0,258719831.0,0.00024079903960227966,-0.0015915865078568459,0.004948164336383343,0.999986469745636,-0.0002651565414411364,0.0066994322359109765,0.0005195389488824133,-0.02274256944656372,0.018265485763549805,0.0366973876953125
1701438682.0,308444474.0,0.00023670680820941925,-0.0015754150226712227,0.0049452511593699455,0.999986469745636,-0.0013283331547442876,-0.00020155811859093174,0.0015984009150728697,0.02423393726348877,-0.024770081043243408,0.02400684356689453
1701438682.0,348494391.0,0.00012932904064655304,-0.0014891745522618294,0.006224441342055798,0.9999794960021973,-0.014124696630290031,0.010077928601478837,0.18184882111940695,-0.6127880811691284,0.5109421014785767,0.2465658187866211
1701438682.0,400397908.0,0.00030188728123903275,-0.0016864733770489693,0.018973348662257195,0.9998185634613037,-0.0067050979545728,-0.0020704102035717024,0.5248103622284792,-0.5665816068649292,0.18252462148666382,-0.37302684783935547
1701438682.0,458413485.0,0.00036517437547445297,-0.00186958909034729,0.04311723634600639,0.9990682601928711,0.010315044280393598,0.0055547952168756,0.9901074033375545,-0.31283891201019287,0.3928825855255127,0.4181356430053711
1701438682.0,508383960.0,0.000494818203151226,-0.0020112600177526474,0.07035855948925018,0.9975196123123169,0.0033211830492325322,-0.014313406267104076,1.3889505487135458,-0.3413160443305969,-0.016209304332733154,0.33945560455322266
1701438682.0,560537947.0,0.00029038917273283005,-0.001745712012052536,0.10440445691347122,0.994533360004425,-0.011155025624712456,0.03502561798730695,1.1643771453178549,-0.4531470537185669,-0.09770369529724121,0.1889781951904297
1701438682.0,608941648.0,0.000529988668859005,-0.0018679099157452583,0.14450371265411377,0.9895023703575134,0.017681174480959173,0.015926696785298546,1.644859788506158,-0.360252320766449,0.5041133761405945,-0.7097349166870117
1701438682.0,658337120.0,0.0006709499284625053,-0.0017980923876166344,0.19016368687152863,0.98175048828125,0.04307421063860263,-0.013443698066550104,1.9826082814498676,-0.25612854957580566,0.10977619886398315,-0.34879398345947266
1701438682.0,708360698.0,0.0005870591849088669,-0.0020993798971176147,0.23908349871635437,0.9709965586662292,0.018695823525403738,-0.00881731040984965,1.8078001438929618,0.21450376510620117,0.06118667125701904,0.3179311752319336
1701438682.0,748320475.0,0.00048075802624225616,-0.001989983953535557,0.2775448262691498,0.9607105255126953,0.0021516602389932494,-0.028404015760534085,1.792465041435058,-0.0216749906539917,-0.40590012073516846,0.9242410659790039
1701438682.0,801216554.0,0.000455731526017189,-0.0018768440932035446,0.3241170048713684,0.9460150599479675,-0.0013700782425619968,-0.0074664277177105545,1.5166341003173986,0.06369483470916748,-0.18716460466384888,0.46044445037841797
1701438682.0,849123797.0,0.0004734974354505539,-0.0018737642094492912,0.3690849542617798,0.9293936491012573,-0.006389841353836873,-0.039867216668612586,1.7469167050750074,-0.0007240176200866699,-0.12318795919418335,-0.08540725708007812
1701438682.0,908236829.0,0.0006202273070812225,-0.002022012136876583,0.4214653968811035,0.906842052936554,0.0226129176939958,-0.037236798554288346,1.8739759976440238,-0.48767805099487305,-0.23888051509857178,0.39753246307373047
1701438682.0,961105967.0,0.0005279406905174255,-0.0018116571009159088,0.4635682702064514,0.8860592246055603,0.017799383150812743,0.001813102467266107,1.4422149902219596,0.21666312217712402,-0.026612579822540283,-1.6433582305908203
1701438683.0,26310037.0,0.0006397096440196037,-0.0019782865419983864,0.5212228894233704,0.8534180521965027,-0.021000422634629545,0.020393864110987286,2.3417298579977657,-0.3586611747741699,-0.21025747060775757,-0.16326332092285156
1701438683.0,108032202.0,0.0007676612585783005,-0.002559170126914978,0.5858974456787109,0.810380756855011,0.006030669008568406,-0.03377257477703698,1.9650675798184833,0.013230621814727783,-0.13987886905670166,-0.43384647369384766
1701438683.0,200855129.0,0.0006935726851224899,-0.0022979462519288063,0.6529825925827026,0.7573691010475159,0.007916371566534155,-0.0035603542368985107,1.8198691608061661,-0.2100887894630432,-0.10883671045303345,0.179290771484375
1701438683.0,278036223.0,0.0010102009400725365,-0.0025704093277454376,0.6946859955787659,0.7193078398704529,0.015132964113283433,-0.013687857777477589,0.9866437308967217,0.3862866163253784,-0.8576182126998901,0.7239408493041992
1701438683.0,287977403.0,0.0011158380657434464,-0.0025557810440659523,0.6977781653404236,0.7163084149360657,0.019481455959808172,-0.013653533342420107,0.8666184216590791,0.3319113254547119,-0.36934900283813477,-0.22274112701416016
1701438683.0,337965863.0,0.0009837821125984192,-0.002575172111392021,0.7088291049003601,0.7053748965263367,-0.002668523578886451,0.0025480976035464034,0.6219855884349016,0.33723121881484985,-0.16892075538635254,-0.2695789337158203
1701438683.0,427914105.0,0.0008859448134899139,-0.0025549447163939476,0.7117781043052673,0.7023992538452148,0.0017164057265572857,-0.0010101084031420764,-0.02011027636325957,-0.08779191970825195,-0.11541891098022461,-0.040190696716308594
1701438683.0,458116554.0,0.0009223408997058868,-0.0025347573682665825,0.7104843258857727,0.7037079334259033,0.0040941377337822766,-0.001302402266204417,-0.10548409017935706,0.00406038761138916,0.12269628047943115,0.1282062530517578
1701438683.0,507884302.0,0.0009108632802963257,-0.002545085735619068,0.7096647024154663,0.7045344114303589,0.0008112793669653803,0.0019280644866896978,0.004792891216419398,-0.07697302103042603,-0.002823948860168457,0.06387805938720703
1701438683.0,547878283.0,0.0009112926200032234,-0.0025151195004582405,0.7100231051445007,0.7041733264923096,0.001527590923478126,-0.0031209354204350163,0.023386228656758185,-0.01723301410675049,-0.021173417568206787,0.07986640930175781
1701438683.0,598239203.0,0.0009080581367015839,-0.002509867772459984,0.710188090801239,0.7040070295333862,0.0011739429788293553,0.0012227780824742615,0.003257702447987877,-0.029771924018859863,-0.06431496143341064,0.051194190979003906
1701438683.0,657828311.0,0.0009311344474554062,-0.0025029750540852547,0.7101221084594727,0.7040734887123108,0.000346809713394337,0.001150139751443256,-0.002154021979367992,-0.019190192222595215,-0.032397449016571045,0.06191825866699219
1701438683.0,687807257.0,0.0009379545226693153,-0.0025078682228922844,0.7101426720619202,0.7040528059005737,0.00026660165360527444,-0.0018012295795064648,0.0005204057064113879,-0.05355554819107056,-0.025253474712371826,0.03687477111816406
1701438683.0,778536004.0,0.0009867595508694649,-0.002547001466155052,0.7101366519927979,0.7040585875511169,0.0012392529800847754,0.0003074129796829004,0.0019615720936249966,0.002816498279571533,-0.009194254875183105,0.07441043853759766
1701438683.0,810850772.0,0.0009841341525316238,-0.002538786269724369,0.7101515531539917,0.7040436267852783,-0.0006072472427270832,-0.0017770080086501824,0.0008107487136362988,-0.029446125030517578,-0.03263735771179199,0.04758262634277344
1701438683.0,859039605.0,0.0012782448902726173,-0.0028202589601278305,0.7108337879180908,0.703353226184845,-0.0024191576618832057,-0.01607973473499844,0.05316410428829842,2.203268051147461,0.014165163040161133,0.3495769500732422
1701438683.0,907788708.0,0.0010696034878492355,-0.0027014967054128647,0.7110718488693237,0.7031133770942688,0.0045445658493303495,-0.026069147046228456,0.019074009214525248,0.5530475974082947,-0.13162541389465332,0.7463274002075195
1701438683.0,947878915.0,0.0010904958471655846,-0.0029051797464489937,0.7110753059387207,0.703109085559845,-0.004960142197654886,-0.014180736920462008,-0.005233700578714486,0.755131185054779,0.05348485708236694,-0.2745847702026367
1701438684.0,7667626.0,0.0014807302504777908,-0.002820533700287342,0.7112681865692139,0.7029135227203369,-0.0029888140993852338,0.007325233742222306,-0.008644096290941185,0.820580244064331,0.0238913893699646,0.1975994110107422
1701438684.0,57636630.0,0.001439887098968029,-0.0030769212171435356,0.7112919688224792,0.702888548374176,-0.031615790256487065,-0.030047818375562706,0.0053149167176867705,0.6549212336540222,-0.018516123294830322,0.43883609771728516
1701438684.0,106578090.0,0.0013231215998530388,-0.0028251493349671364,0.7111010551452637,0.7030829191207886,-0.0011147695259621977,0.05934076793039468,-0.01834133168985339,0.9573033452033997,-0.14094561338424683,0.16135597229003906
1701438684.0,157679886.0,0.0016042040660977364,-0.0026793237775564194,0.7113856077194214,0.7027949094772339,-0.009184438840090871,0.019305672145290238,0.012176127605351411,0.26001185178756714,0.12252509593963623,0.0645589828491211
1701438684.0,210232504.0,0.0015941662713885307,-0.0028055505827069283,0.7116156816482544,0.7025615572929382,0.0006723005783037447,-0.011890064528330014,0.01471892452192891,0.009330987930297852,0.04480254650115967,-0.9098873138427734
1701438684.0,397682117.0,0.0018512886017560959,-0.002594943158328533,0.7104551792144775,0.7037352919578552,-0.0023673218486710244,0.007102231409712527,-0.00577869223181464,0.3327932357788086,0.07216042280197144,-1.2090721130371094
1701438684.0,467527028.0,0.0018109213560819626,-0.0027922727167606354,0.7107717394828796,0.7034149169921875,-0.005563440630674375,-0.04348787306564855,-0.006846058606146272,-0.16548454761505127,-0.12322521209716797,-0.1800222396850586
1701438684.0,507444972.0,0.0016807792708277702,-0.0024504465982317924,0.7106407880783081,0.7035488486289978,-0.00808375877793979,0.03483075967120535,-0.002829365484692836,0.3095625042915344,0.15356969833374023,-0.8426609039306641
1701438684.0,537439673.0,0.0018602274358272552,-0.002431834116578102,0.7107380628585815,0.703450083732605,0.010398556223286176,-0.010270597058325559,0.01806214092390368,0.2937629818916321,0.4171940088272095,-0.0021991729736328125
1701438684.0,567453379.0,0.001648670993745327,-0.0023697884753346443,0.7110885977745056,0.7030965685844421,0.004645620383649135,0.013686103186849301,0.035832947915781066,0.0625489354133606,0.12872612476348877,0.6632471084594727
1701438684.0,579670504.0,0.0016509778797626495,-0.002504589967429638,0.7112026810646057,0.7029806971549988,-0.015353571404742933,-0.01579588221097293,0.026659121800555984,-0.15046381950378418,0.07074832916259766,-0.2323007583618164
1701438684.0,597453878.0,0.0016452623531222343,-0.0025922562927007675,0.7113242745399475,0.7028573155403137,0.004544524170023695,-0.009211267386703468,0.012231693349835418,-0.19674736261367798,-0.2595406174659729,0.8439197540283203
1701438684.0,637458604.0,0.001909138634800911,-0.0022893231362104416,0.7113617658615112,0.70281982421875,0.041460600747114884,0.02647865421786962,0.014354749640674234,0.1796783208847046,-0.13583147525787354,-1.2964935302734375
1701438684.0,659629390.0,0.0018195528537034988,-0.002155974507331848,0.7114592790603638,0.7027217149734497,-0.008865895730500839,-0.007103816016249098,0.011797192845719137,-0.46610671281814575,0.0010489225387573242,0.2859811782836914
1701438684.0,707847643.0,0.001552061177790165,-0.0019087102264165878,0.7115007638931274,0.7026811242103577,0.00023761628208155642,0.02694902810408985,-0.006846110708845205,0.0355302095413208,0.12819832563400269,-0.6873598098754883
1701438684.0,747600887.0,0.001741497777402401,-0.002006489783525467,0.7113205790519714,0.7028627991676331,0.04152707362883747,-0.02777082344271183,-0.021528717508055826,0.17429763078689575,-0.06649845838546753,0.17087459564208984
1701438684.0,797367456.0,0.0015808148309588432,-0.0017375610768795013,0.7112645506858826,0.7029204964637756,-0.013870532197431883,-0.018165484021411386,0.0033152578060324624,0.3848112225532532,0.33711206912994385,-1.0477991104125977
1701438684.0,867791240.0,0.00179367046803236,-0.0017588017508387566,0.7114177346229553,0.7027649283409119,0.032410095790327505,-0.038314787431555905,0.005909324513051536,-0.18003976345062256,-0.02245199680328369,-0.2788829803466797
1701438684.0,918101968.0,0.0017770705744624138,-0.0014048023149371147,0.7113897800445557,0.7027941346168518,-0.0064638693206601145,0.047779580475804835,-0.004170261503456483,-0.46545565128326416,-0.15043556690216064,0.5046958923339844
1701438684.0,957176608.0,0.0018277252092957497,-0.001559690572321415,0.7112264633178711,0.7029588222503662,-0.0070042146712225644,-0.008712096411776747,-0.01396455016800349,0.30238109827041626,0.0067819952964782715,-0.7633953094482422
1701438685.0,7137196.0,0.002153380773961544,-0.0015812944620847702,0.7110514640808105,0.7031348943710327,-0.022796302579282317,-0.008987334772487327,-0.020835695883420994,-0.1070510745048523,-0.1118820309638977,0.44026851654052734
1701438685.0,60023899.0,0.0020768307149410248,-0.0012503257021307945,0.7109073400497437,0.703281581401825,0.02864653250948631,0.011789582522871307,0.00858446597883127,-0.25846564769744873,0.2630937099456787,-0.0678853988647461
1701438685.0,108244034.0,0.0022199461236596107,-0.001516951248049736,0.7109161615371704,0.7032716870307922,-0.009772624934320412,-0.0025637362529036503,-0.004754597986341062,-0.1531851887702942,-0.23293566703796387,0.4392881393432617
1701438685.0,167126703.0,0.002687433734536171,-0.001464691013097763,0.7107462882995605,0.7034417986869812,0.014524580603073732,-0.0012598733763839946,-0.0032390234771771213,-0.09239226579666138,0.30615538358688354,0.02111530303955078
1701438685.0,196015304.0,0.0021884338930249214,-0.0013239160180091858,0.7108935713768005,0.7032949924468994,-0.016516452102539582,0.008194520486983922,0.0066728185000907055,-0.09286385774612427,-0.06675851345062256,-0.2655363082885742
1701438685.0,247014408.0,0.002406572923064232,-0.0012428509071469307,0.7106662392616272,0.703524112701416,0.028113865748476914,0.04237263797531607,0.0004223966973554986,-0.37151432037353516,-0.07283186912536621,-0.35087108612060547
1701438685.0,317222191.0,0.0023984117433428764,-0.001318344846367836,0.7107560038566589,0.7034333944320679,0.006559830567984916,-0.001744252977542899,0.020845307470493256,0.4676179885864258,0.3359084129333496,-0.10382843017578125
1701438685.0,367236696.0,0.0025321897119283676,-0.0015793535858392715,0.7109352946281433,0.7032511234283447,0.007046722107362201,-0.02262139766225172,0.0025954801145863984,0.0646551251411438,-0.15491724014282227,-0.26574039459228516
1701438685.0,407104149.0,0.0026254476979374886,-0.0014100326225161552,0.7110945582389832,0.7030901312828064,-0.01802908541994234,-0.013475036906260401,0.017970836490563268,-0.19791436195373535,-0.08486431837081909,0.5376253128051758
1701438685.0,447174250.0,0.002618996426463127,-0.001568308100104332,0.7113209962844849,0.7028607130050659,-0.02133725837570099,0.008366316518305144,0.0052554700022584885,0.24393165111541748,-0.13488435745239258,-0.8573284149169922
1701438685.0,509180464.0,0.002686312422156334,-0.0015923678874969482,0.7112909555435181,0.7028908133506775,0.016498742188954748,-0.003125541109121377,-0.007865087712464207,0.22718143463134766,0.29810434579849243,-0.14992904663085938
1701438685.0,556969592.0,0.002444992773234844,-0.0018587363883852959,0.711188018321991,0.702995240688324,-0.030398051142142037,-0.02296256125049411,-0.003072455954311214,0.03490978479385376,-0.06604784727096558,-0.3519725799560547
1701438685.0,607062881.0,0.0022433092817664146,-0.001763886772096157,0.7111303210258484,0.7030544877052307,-0.009513989633315713,0.0001905204224546512,0.0073434751929980025,-0.3752405643463135,-0.07280021905899048,-0.5358171463012695
1701438685.0,668930007.0,0.0026049837470054626,-0.0018857279792428017,0.7114181518554688,0.702761709690094,-0.011414315686087258,0.006298355299180876,0.010635368365429061,0.11270761489868164,0.046468257904052734,-0.6990833282470703
1701438685.0,717624559.0,0.0026980722323060036,-0.0024155182763934135,0.7113178968429565,0.7028611302375793,-0.02999668042715762,0.0069215225086460145,-0.02213521154098721,0.1634916067123413,-0.19417202472686768,-0.4349822998046875
1701438685.0,767016316.0,0.0028920089825987816,-0.0022544823586940765,0.7111417055130005,0.7030391693115234,0.010071976597516637,0.019312528507188526,-0.0033627725073632026,-0.4134429097175598,0.0355067253112793,-0.6669683456420898
1701438685.0,806761771.0,0.0029024984687566757,-0.0023485207930207253,0.7111397385597229,0.7030407786369324,0.01998731073077806,-0.02260395141974105,0.0032505148407545965,0.28497475385665894,0.2379876971244812,0.4766216278076172
1701438685.0,856805559.0,0.0030711377039551735,-0.002669033594429493,0.7109852433204651,0.7031952142715454,-0.008876494465350028,-0.027223486514133907,-0.014559070513463949,0.15094536542892456,-0.005617678165435791,-0.887629508972168
1701438685.0,909536747.0,0.00325066689401865,-0.0024763625115156174,0.7113618850708008,0.7028141021728516,-0.0071261168582331825,-0.01222297989925173,0.02803167905241771,-0.2506747841835022,0.04509234428405762,0.1066741943359375
1701438685.0,957243581.0,0.0032904716208577156,-0.0026685483753681183,0.7116442918777466,0.7025272846221924,0.02152060874675262,-0.06461764979984005,-0.00304404763146199,0.02949303388595581,-0.23902148008346558,0.05917930603027344
1701438686.0,6649998.0,0.0032378919422626495,-0.002400270663201809,0.7113116383552551,0.7028653025627136,-0.0058670328240551595,0.036722850559501224,-0.0026766361686980855,-0.1829659342765808,-0.15603142976760864,0.35250282287597656
1701438686.0,56674377.0,0.003278665244579315,-0.0023803124204277992,0.7114313840866089,0.7027438879013062,-0.00948789598561702,0.02811901908349292,0.007977536612433445,0.0033840537071228027,-0.07669621706008911,-0.1259164810180664
1701438686.0,117663931.0,0.00345785915851593,-0.0025281663984060287,0.7113742828369141,0.7028003931045532,0.002881975199191584,-0.0010063427382673133,-0.027548318480846268,-0.24229460954666138,-0.1508379578590393,0.48552894592285156
1701438686.0,166589950.0,0.0036184098571538925,-0.0021947817876935005,0.7117472887039185,0.7024229168891907,0.006750474319173009,-0.003864291061460112,0.038039154371657356,0.1760803461074829,0.019404292106628418,-0.1751079559326172
1701438686.0,206541358.0,0.003500070422887802,-0.002193623222410679,0.7121554017066956,0.7020097374916077,-0.002063552442221554,-0.0018812119215408534,0.025889778001214548,0.04097837209701538,-0.15933650732040405,-0.7439594268798828
1701438686.0,256651537.0,0.003829285502433777,-0.002361132763326168,0.7121092081069946,0.7020542621612549,0.013307419304886915,0.02394137109732273,-0.012169252735897647,-0.10821443796157837,0.08451581001281738,-0.14015483856201172
1701438686.0,308376675.0,0.0035050343722105026,-0.0023121479898691177,0.7122129201889038,0.7019509077072144,-0.021243183099061987,0.0018723967897624717,-0.006551487897728192,-0.12568646669387817,-0.016352295875549316,-0.3573284149169922
1701438686.0,358431878.0,0.0034431573003530502,-0.0021841656416654587,0.7119923233985901,0.7021753787994385,-0.0037612249151225763,-0.014849956739005571,-0.013742536898239819,-0.16659629344940186,0.020132899284362793,-0.40038299560546875
1701438686.0,406671056.0,0.0036352984607219696,-0.0019438043236732483,0.7117490172386169,0.7024217844009399,-0.008523999333179991,0.04654613826836279,-0.0015802984572795698,0.3756794333457947,0.3370468020439148,-0.5512905120849609
1701438686.0,469225931.0,0.003315487876534462,-0.002105027437210083,0.7117978930473328,0.7023733854293823,-0.019141126209638773,0.026661022779884292,0.007524785350563694,-0.14054065942764282,-0.11882668733596802,1.4514551162719727
1701438686.0,517955964.0,0.0037486208602786064,-0.00218959990888834,0.7118133902549744,0.7023552656173706,0.014282876946439215,0.024288695228431263,-0.007527616247664167,0.22628170251846313,0.08357667922973633,-0.07106494903564453
1701438686.0,566408911.0,0.003325442783534527,-0.001854010857641697,0.7117120027542114,0.7024610638618469,-0.0016544232573238976,0.02498080264516941,0.004756495430755557,0.19975119829177856,0.009942948818206787,-1.51678466796875
1701438686.0,616701845.0,0.0029774652794003487,-0.001912163570523262,0.711637556552887,0.7025378942489624,-0.022585478345324036,0.008253722477880405,-0.00457393642857107,0.3312033414840698,-0.2619475722312927,0.2719135284423828
1701438686.0,666313653.0,0.0028692716732621193,-0.0013815993443131447,0.7117302417755127,0.7024456858634949,0.006938598170591973,0.02659038700690278,0.021281340493451276,-0.1822969913482666,0.23678117990493774,0.4473304748535156
1701438686.0,706379520.0,0.0024880338460206985,-0.001325872726738453,0.7120718359947205,0.7021009922027588,-0.0018868372495327353,-0.025841153646713605,0.007695906783485073,0.4897354245185852,0.16338127851486206,-0.2048320770263672
1701438686.0,758336084.0,0.0020624464377760887,-0.0008270861580967903,0.7121513485908508,0.7020224928855896,-0.001983759185882901,-0.00489722149754791,0.009405496645740804,0.021742582321166992,-0.042889535427093506,-0.5696325302124023
1701438686.0,806732158.0,0.001633923500776291,-0.0006196331232786179,0.7119798064231873,0.7021978497505188,-0.012640448361962354,0.027792488430385922,-0.010662185008492303,0.12405413389205933,-0.11398667097091675,-1.0943107604980469
1701438686.0,856191713.0,0.001077478751540184,-0.0003156205639243126,0.7118869423866272,0.7022932171821594,0.0037488330412030015,-0.0032505376773743697,-0.01174990261363628,-0.05277365446090698,0.008172988891601562,-0.5297822952270508
1701438686.0,906361840.0,0.0007946984842419624,0.00015425123274326324,0.7120832204818726,0.7020946741104126,-0.024919105503565422,0.003574076960446506,0.00896095569408906,-0.165652334690094,-0.01961904764175415,-0.3066396713256836
1701438686.0,956330859.0,0.00020292680710554123,0.0004549538716673851,0.7121994495391846,0.701977014541626,-0.006184337282111096,0.043556414207421755,0.008940072180863715,0.1946437954902649,-0.12150943279266357,0.10733509063720703
1701438687.0,16105072.0,-3.1254254281520844e-05,0.000538933090865612,0.7123154997825623,0.7018592953681946,-0.006157187561372653,0.03665234932853694,0.026144127385738274,-0.3878864049911499,-0.060294508934020996,0.2744264602661133
1701438687.0,66179899.0,-0.0002180030569434166,0.00014831870794296265,0.7125259637832642,0.7016457319259644,-0.016712065279675375,0.014606795116821914,-0.004195037939725952,-0.04743927717208862,-0.17014122009277344,1.5127925872802734
1701438687.0,106247691.0,-0.0004541706293821335,0.0003997385501861572,0.7124620079994202,0.7017105221748352,-0.0069055009849059105,-0.005031886469089986,-0.021090453126714787,0.07832467555999756,-0.11650484800338745,-1.2032318115234375
1701438687.0,158787265.0,-0.0003251461312174797,0.0005451841279864311,0.7122349739074707,0.7019408941268921,-0.007851611098454583,0.029289522157269078,-6.1698670920312035e-06,-0.27437394857406616,0.10292506217956543,-0.2593250274658203
1701438687.0,206903904.0,-0.0003191353753209114,0.00020069070160388947,0.7120335698127747,0.7021452784538269,-0.01278545706548684,0.0017874932832255192,-0.018405566830588225,-0.08067798614501953,-0.11170995235443115,-0.5076332092285156
1701438687.0,256225387.0,-2.6424415409564972e-05,2.744607627391815e-06,0.7117525339126587,0.7024303078651428,-0.02200835436810321,-0.03654904554989267,-0.005261715902277562,0.0719342827796936,-0.031186580657958984,1.104710578918457
1701438687.0,318969504.0,-5.8086588978767395e-06,-2.1219253540039062e-05,0.7120072245597839,0.7021721601486206,0.004887112354421411,-0.034257662255403935,0.001558100778620484,-0.005264997482299805,0.19014310836791992,-1.0019941329956055
1701438687.0,356252114.0,-4.860013723373413e-05,-0.0001584114506840706,0.7121065855026245,0.7020714282989502,-0.005077274522887906,0.03759417646418588,0.01114871072769564,0.0707511305809021,0.008016467094421387,-0.3734130859375
1701438687.0,406304813.0,0.00020004436373710632,-0.00019334349781274796,0.712201714515686,0.7019749283790588,-0.009122303600244186,-0.020747187607728007,0.010941723579734663,0.4338034391403198,-0.016378343105316162,-0.1392374038696289
1701438687.0,466407560.0,0.00029168929904699326,-0.000536549836397171,0.7123534083366394,0.7018206715583801,-0.007160977353519911,-0.030780299627882608,0.0016253028073557616,0.19592124223709106,0.03016340732574463,-0.16546630859375
1701438687.0,506637503.0,0.0002135513350367546,-0.00028822384774684906,0.7124708890914917,0.7017015218734741,-0.003902698952596227,0.0008849722300704378,0.00730175076261261,-0.1670646071434021,-0.07486295700073242,-0.4983253479003906
1701438687.0,558539042.0,0.0003106566146016121,-0.0004115374758839607,0.712755024433136,0.7014129161834717,-0.0032360791839504536,0.00947228021184559,0.022387179440722337,-0.13680988550186157,-0.11201900243759155,-0.1517486572265625
1701438687.0,607449240.0,0.0006459113210439682,-0.0008885981515049934,0.7129082679748535,0.7012564539909363,0.01705417167429525,-0.010312510891438132,-0.006832655249174196,0.2034357190132141,-0.05585503578186035,0.28539466857910156
1701438687.0,665836512.0,0.0006680861115455627,-0.0005585243925452232,0.7127320766448975,0.701435923576355,0.0034145416511203405,-0.000755387516864836,0.0010390288711595275,-0.2871067523956299,-0.17229950428009033,0.03552436828613281
1701438687.0,715840517.0,0.0005929963663220406,-0.0006584431976079941,0.7128162384033203,0.7013503313064575,-0.010381690370363541,-0.008745786401855972,-0.01272720668192137,0.014521121978759766,0.22132861614227295,-0.45597267150878906
1701438687.0,767973585.0,0.0008836081251502037,-0.0006829258054494858,0.7126662731170654,0.7015023827552795,0.002378313905448553,0.01236341778510048,0.0008429584924831809,0.1720435619354248,0.12429940700531006,-0.34505176544189453
1701438687.0,815701164.0,0.0008680764585733414,-0.0011281594634056091,0.7127280235290527,0.7014390826225281,-0.010911380993731403,-0.010919572544475951,0.01342163036228609,-0.07384562492370605,-0.24953097105026245,0.47676658630371094
1701438687.0,865969968.0,0.0012897821143269539,-0.0012424802407622337,0.712918221950531,0.7012450098991394,0.020839285561157325,-0.04859565733156037,0.004605852213335678,-0.20945054292678833,-0.07607781887054443,0.29205322265625
1701438687.0,914783122.0,0.0011510755866765976,-0.0008737035095691681,0.7130284309387207,0.7011337280273438,-0.01582145852166315,0.027615228247016586,-0.023822035180991807,-0.3372342586517334,-0.0366324782371521,-0.2967033386230469
1701438687.0,955694015.0,0.001322631724178791,-0.0012072576209902763,0.712753415107727,0.7014123797416687,-0.0029385377596452336,-0.016682849083810354,-0.007425172430605891,-0.06044721603393555,0.07702690362930298,-0.2635021209716797
1701438688.0,7959976.0,0.0017775548622012138,-0.001485917717218399,0.7126104831695557,0.7015561461448669,-0.017373059611678423,-0.022964859768239386,0.0004935356766202592,-0.006624758243560791,-0.18339425325393677,0.715367317199707
1701438688.0,65588369.0,0.0017334548756480217,-0.0013304809108376503,0.7126665115356445,0.7014996409416199,-0.005266288492287975,-0.01420516820245416,0.007829874510661245,0.07485610246658325,0.1604928970336914,-1.1297283172607422
1701438688.0,115588709.0,0.0016854312270879745,-0.0016165021806955338,0.7127747535705566,0.7013891935348511,-0.025748845360529283,-0.02469229548465462,-0.006438708455479999,0.1600070595741272,-0.19683986902236938,0.1706247329711914
1701438688.0,168062261.0,0.0020511168986558914,-0.0013000890612602234,0.712968647480011,0.701191782951355,0.014616803594720505,0.010337665048506379,0.015613496303187695,0.13086992502212524,0.24602347612380981,-0.289398193359375
1701438688.0,205496174.0,0.0019128024578094482,-0.0013499688357114792,0.7130827307701111,0.7010759711265564,0.008801039853702716,-0.0338209179372016,0.002121773159945615,0.09061330556869507,0.15231555700302124,0.8099880218505859
1701438688.0,265449862.0,0.0020046625286340714,-0.0012648934498429298,0.7130600810050964,0.7010989785194397,-0.002886064306362796,-0.014551802294894028,0.0037304669777378937,-0.0006765127182006836,-0.17946678400039673,-0.19894695281982422
1701438688.0,315558343.0,0.0019627511501312256,-0.0011245068162679672,0.7133253812789917,0.7008294463157654,0.006073101161274915,0.01812272904867319,0.005241715602701833,0.24196606874465942,0.13732171058654785,0.21317577362060547
1701438688.0,355409440.0,0.002128778025507927,-0.0013690097257494926,0.7134910225868225,0.7006598711013794,0.01947659287700774,-0.009331530665228547,0.013812445277311637,0.04527401924133301,-0.05023753643035889,0.03428459167480469
1701438688.0,425444116.0,0.0024607963860034943,-0.001182379201054573,0.7139735221862793,0.7001674175262451,0.013542606239586455,0.01558243661726678,0.013200510080780478,0.06548351049423218,0.03615516424179077,0.2765932083129883
1701438688.0,465370600.0,0.002115153707563877,-0.0011111712083220482,0.7138378620147705,0.7003070116043091,-0.004571232210026083,-0.00035327127549366044,-0.009152175744828493,0.12943148612976074,0.17545634508132935,-1.2593727111816406
1701438688.0,515388190.0,0.002236270345747471,-0.0009527355432510376,0.7136863470077515,0.700461208820343,0.0024045728608830274,0.020742982555449853,-0.011963532060653913,-0.2786325216293335,-0.07971364259719849,-0.9472522735595703
1701438688.0,567950847.0,0.0021784165874123573,-0.0013106223195791245,0.7136207818984985,0.7005276679992676,-0.010196595273625101,0.011427396954322606,-0.008667669861730972,-0.015222251415252686,-0.10333532094955444,0.7599601745605469
1701438688.0,616825893.0,0.0023945430293679237,-0.0012265294790267944,0.7135829329490662,0.7005656361579895,0.022025387896599698,-0.031282174540228996,0.00876650050066177,-0.09164106845855713,0.02666938304901123,-0.10388469696044922
1701438688.0,665376442.0,0.0024290932342410088,-0.001042766496539116,0.713911235332489,0.70023113489151,-0.006561359920394707,0.005008389180589869,0.013263461671603109,-0.2931084632873535,-0.04473823308944702,-0.2811098098754883
1701438688.0,715475673.0,0.002295287325978279,-0.0012999344617128372,0.7138571739196777,0.700286328792572,-0.025886540239633195,0.03852203203477812,-0.02664738822360783,0.005903959274291992,-0.167352557182312,1.6990718841552734
1701438688.0,755211334.0,0.002636636607348919,-0.001400589942932129,0.7136321067810059,0.7005142569541931,-0.02596210537105537,-0.020653289636775606,-0.004777407182335534,0.03893083333969116,-0.09275257587432861,-0.12415409088134766
1701438688.0,804297157.0,0.0025119809433817863,-0.0012503070756793022,0.7135839462280273,0.7005641460418701,0.032808425050895006,-0.04909449971639532,0.001673584555646405,0.03624117374420166,0.08623194694519043,-0.4907503128051758
1701438688.0,865101631.0,0.002330997958779335,-0.0015310980379581451,0.7133503556251526,0.7008020877838135,-0.04530038613111488,-0.04241696097562574,-0.013662136902694267,0.29544156789779663,-0.16737627983093262,0.11741924285888672
1701438688.0,925055709.0,0.002619028091430664,-0.0013304222375154495,0.7137866020202637,0.7003571391105652,-0.0023325381976739327,-0.004541018941545227,0.019196168653603483,0.04477578401565552,0.1434553861618042,-0.3795919418334961
1701438688.0,965114879.0,0.002692759968340397,-0.0017151404172182083,0.713965117931366,0.7001739740371704,-0.005158279177518479,-0.007157390036247083,-0.002945954125718749,-0.33772391080856323,-0.2255260944366455,-0.05312061309814453
1701438689.0,25228777.0,0.0026745693758130074,-0.0015075849369168282,0.7138083577156067,0.700334370136261,0.020649853448049194,-0.033983440496375576,0.00414977926640261,-0.06351208686828613,0.1866883635520935,-0.08843708038330078
1701438689.0,65417020.0,0.002383674494922161,-0.0014714105054736137,0.7138834595680237,0.7002590298652649,0.0013178303728658852,-0.01655065168114889,0.015293242441101022,0.4007917642593384,0.2512440085411072,-0.11332511901855469
1701438689.0,104939952.0,0.0024844827130436897,-0.0017338208854198456,0.714052677154541,0.7000855207443237,0.014748880606236822,0.019046277950412218,-0.008750621940273576,-0.26387929916381836,-0.03534376621246338,0.3217496871948242
1701438689.0,154935531.0,0.002587251365184784,-0.0015983907505869865,0.7142593860626221,0.6998745203018188,-0.01474779644764018,-0.02774705337669999,0.030955766264428763,-0.11729180812835693,-0.07299220561981201,-0.034369468688964844
1701438689.0,204961414.0,0.0022338973358273506,-0.0014880932867527008,0.7146628499031067,0.6994640231132507,-0.0007369608312337542,-0.011324458815830503,0.015827473875103075,-0.1127050518989563,-0.02801591157913208,0.5079402923583984
1701438689.0,264823863.0,0.0021775448694825172,-0.0013994015753269196,0.7143551707267761,0.6997786164283752,-0.0027198663683445437,0.03727070349456669,-0.025749166034996683,-0.3543217182159424,-0.26223212480545044,0.13698577880859375
1701438689.0,484720847.0,0.0016018431633710861,-0.0014774622395634651,0.7142994999885559,0.699836790561676,0.04868422926267147,-0.039151751573736654,-0.0006782041526715263,-0.23143887519836426,-0.04185575246810913,-0.7402181625366211
1701438689.0,514684713.0,0.001455165445804596,-0.0014061741530895233,0.7142025232315063,0.6999362111091614,0.014032450606010261,0.056589194868365784,-0.020364937382192957,-0.09282106161117554,0.1012309193611145,-0.462371826171875
1701438689.0,524703204.0,0.001278257928788662,-0.0011677863076329231,0.7141411304473877,0.6999996900558472,0.00922867068355618,0.05853338822048318,-0.01764935166688412,0.15666770935058594,0.2510685324668884,-0.6428508758544922
1701438689.0,594631105.0,0.0008542723953723907,-0.0012895520776510239,0.7139566540718079,0.7001882195472717,0.013592942950714778,-0.010469894409770565,-0.00915519150285009,-0.12672126293182373,0.03403925895690918,-0.7352685928344727
1701438689.0,626512820.0,0.0008294591680169106,-0.0012379782274365425,0.7139137387275696,0.7002321481704712,0.030155635899072265,0.007793549449184271,-0.005037495364967076,-0.2489105463027954,-0.08761751651763916,0.6409702301025391
1701438689.0,657364204.0,0.0007041608914732933,-0.0010424209758639336,0.7139043807983398,0.7002421617507935,-0.00898656522820271,0.011247099830809357,-0.00044553641693238934,0.01795518398284912,0.16966944932937622,0.11012077331542969
1701438689.0,705258241.0,0.0004993341863155365,-0.001109781675040722,0.7141806483268738,0.6999604105949402,0.001280343516693972,-0.022117554302220024,0.011453779695309179,0.02468198537826538,-0.008108794689178467,-0.09815311431884766
1701438689.0,734628259.0,0.000309026800096035,-0.0010025175288319588,0.7142831683158875,0.6998561024665833,0.016161356652687094,0.02613029644032877,0.01052964889399784,0.0171816349029541,-0.09122610092163086,0.19288158416748047
1701438689.0,754955395.0,0.000363335944712162,-0.0009472137317061424,0.7143930196762085,0.699743926525116,-0.00786418662841431,-0.012526976484148175,0.013884204289924821,-0.18474328517913818,-0.14678847789764404,-0.05613136291503906
1701438689.0,794539083.0,0.00025759078562259674,-0.0008356766775250435,0.7144302129745483,0.6997061967849731,-0.024318147471975415,0.03990640538393879,3.245489558596678e-05,0.3314487338066101,-0.088101327419281,-0.8085403442382812
1701438689.0,824521354.0,8.875969797372818e-05,-0.0008089719340205193,0.7144917845726013,0.6996434330940247,-0.016276986208065194,-0.021668667337081546,0.0038198336315824126,0.4142214059829712,0.18024075031280518,0.09267139434814453
1701438689.0,866780469.0,-2.138037234544754e-05,-0.0006755618378520012,0.7143124341964722,0.6998266577720642,0.0014869592186888896,0.01581890202069017,-0.006999892800693105,-0.4107014536857605,-0.24585598707199097,-0.005097389221191406
1701438689.0,914531147.0,0.0001344894990324974,-0.00040399469435214996,0.7146360874176025,0.699496328830719,0.00831149323197345,0.01619689769007641,0.020650981680070454,0.07722741365432739,-0.052521705627441406,-0.12171363830566406
1701438689.0,954504216.0,-0.00021239835768938065,-0.00017806142568588257,0.714889407157898,0.6992374658584595,0.0026260686438111013,0.005240424450950682,0.021782882629465317,0.014014959335327148,0.0045067667961120605,-0.5023193359375
1701438690.0,14383637.0,-3.156345337629318e-05,-0.00010186247527599335,0.7151442170143127,0.698976993560791,0.007036417698541722,-0.0016874994426044065,0.017285235538837554,0.002185225486755371,-0.10994350910186768,0.22696208953857422
1701438690.0,64442588.0,-0.0001762276515364647,-0.0003223186358809471,0.7151482701301575,0.6989727020263672,-0.012590848833791666,0.006081265188638186,-0.0160096378659226,0.17456817626953125,-0.15891212224960327,-0.053750038146972656
1701438690.0,114339674.0,-9.603891521692276e-05,-3.176182508468628e-05,0.7147877812385559,0.6993415355682373,0.025467589025093114,-0.030273225286203596,-0.03204436541810987,-0.16179144382476807,-0.04730325937271118,0.013649940490722656
1701438690.0,164298660.0,-0.0001292964443564415,0.00028087571263313293,0.7146920561790466,0.6994392275810242,-0.01246467088635206,0.015271746790640198,-0.006107911133087286,-0.4313492178916931,-0.11982721090316772,-0.42192745208740234
1701438690.0,214338654.0,-0.000285993330180645,0.00018563773483037949,0.7145113945007324,0.6996238231658936,-0.01924941122584695,0.03388308327552608,-0.01354274211125259,-0.20529955625534058,-0.08317005634307861,0.9190216064453125
1701438690.0,267389700.0,0.00014223158359527588,0.00021998118609189987,0.7143259644508362,0.6998131275177002,0.015589121310104481,0.04571651520696746,0.0007234881657701884,-0.08246642351150513,0.2335415482521057,0.6256275177001953
1701438690.0,315161702.0,0.0002940874546766281,7.213093340396881e-06,0.7146300077438354,0.6995026469230652,-0.001974887294442849,-0.004651693738163774,0.015244718862430317,0.42146748304367065,-0.03452581167221069,-1.4736394882202148
1701438690.0,374200042.0,7.602572441101074e-05,0.00010238774120807648,0.714592695236206,0.6995408535003662,0.03493166562763504,0.0016682470357601777,-0.007904519135149338,-0.049436986446380615,-0.1731387972831726,1.0639867782592773
1701438690.0,414166435.0,9.832903742790222e-06,0.00035339314490556717,0.714676022529602,0.6994554996490479,0.0040334149895297445,-0.006657268805947151,0.003729333768144101,-0.2345672845840454,0.24576759338378906,0.18241214752197266
1701438690.0,464324508.0,-1.3453885912895203e-05,-4.38932329416275e-06,0.7146896719932556,0.69944167137146,-0.00862043730138133,-0.015317584319289888,-0.006251849001917148,-0.3156266212463379,-0.23036104440689087,-0.2639331817626953
1701438690.0,524099737.0,-0.00014912988990545273,0.0001979246735572815,0.7150582671165466,0.6990649104118347,-0.004472030259355759,-0.033617734937412644,0.013331689957718832,-1.4694252014160156,-0.03376549482345581,-0.2604646682739258
1701438690.0,564073105.0,-0.00020843558013439178,0.00021131616085767746,0.7150618433952332,0.6990611553192139,-0.013945766457969877,0.029438500504457732,-0.0005877159354862018,-0.8865106105804443,-0.05792897939682007,0.3071107864379883
1701438690.0,613031474.0,-2.768542617559433e-05,-4.3647363781929016e-05,0.7153303027153015,0.6987864971160889,-0.011172570258008649,0.007646026148429369,0.009138795577237947,-0.738396942615509,0.21969980001449585,0.2022838592529297
1701438690.0,664069320.0,-0.0002135215327143669,-0.00015015527606010437,0.7152393460273743,0.698879599571228,0.0018868087950726336,0.0147181340041434,0.007455333186981837,-0.9931658506393433,-0.05626344680786133,0.5014066696166992
